"onset","duration","trial_type","response_time","word","response","correct_resp","gender","age","sub","block","year"
7.28648029999749,0.685996300002444,"image_neg",1.02069520000077,"policeman","y",1,"female",22,104,1,2023
17.2830717000033,0.689875700001721,"image_pos",0.574483999997028,"new","b",1,"female",22,104,1,2023
27.2847363000037,0.688324799994007,"image_pos",0.623350299996673,"lemonade","b",1,"female",22,104,1,2023
37.284464700002,0.689369700005052,"image_neg",0.840304700002889,"plot","y",1,"female",22,104,1,2023
47.2844841000042,0.690367400005925,"image_pos",0.691869700007373,"plum","b",1,"female",22,104,1,2023
57.2849781000114,0.689922899997327,"image_neg",0.557587799994508,"deceit","y",1,"female",22,104,1,2023
64.6860101000057,0.689308500004699,"image_pos",0.840652900005807,"oak","b",1,"female",22,104,1,2023
77.2863335000002,0.689085300007719,"image_pos",0.740835900011007,"fiddle","b",1,"female",22,104,1,2023
84.6873821000045,0.688673800003016,"image_pos",0.473349000007147,"love","b",1,"female",22,104,1,2023
97.2871674000053,0.689772300000186,"image_pos",0.690967599992291,"boat","b",1,"female",22,104,1,2023
104.687015200005,0.690087499999194,"image_neg",0.641109899996081,"corkscrew","y",1,"female",22,104,1,2023
114.688362000001,0.689570300004561,"image_pos",0.490553399999044,"beach","b",1,"female",22,104,1,2023
127.2886,0.689850900002057,"image_pos",0.774544200001401,"school","b",1,"female",22,104,1,2023
137.289229000002,0.68950200000836,"image_pos",0.55755450000288,"moral","b",1,"female",22,104,1,2023
147.289358499998,0.689912000001641,"image_neg",0.674509900010889,"fence","y",1,"female",22,104,1,2023
154.69126810001,0.6880048999883,"image_neg",0.675348199991276,"rocket","y",1,"female",22,104,1,2023
167.29284770001,0.687357199989492,"image_pos",0.67190689999552,"tourist","b",1,"female",22,104,1,2023
177.290817000001,0.689821200008737,"image_neg",0.474713500007056,"hospital","y",1,"female",22,104,1,2023
184.691254600009,0.689402599993599,"image_neg",0.424291599993012,"alligator","y",1,"female",22,104,1,2023
194.691853000011,0.689228899995186,"image_pos",0.524089499987895,"fun","b",1,"female",22,104,1,2023
204.692075900006,0.689973300002777,"image_neg",0.674809200005257,"treaty","y",1,"female",22,104,1,2023
214.70942330001,0.68970669999544,"image_neg",0.70789779999177,"avalanche","y",1,"female",22,104,1,2023
227.309956000012,0.689605199993821,"image_pos",0.425324199997703,"kiss","b",1,"female",22,104,1,2023
237.310484100002,0.689741399997757,"image_pos",0.441088399995351,"pie","b",1,"female",22,104,1,2023
247.310284100007,0.690224399993923,"image_neg",0.525090800001635,"man","y",1,"female",22,104,1,2023
254.710970600005,0.689840599996415,"image_neg",0.424891600006958,"gasp","y",1,"female",22,104,1,2023
267.311704100008,0.690095500001917,"image_pos",0.808200799991027,"sled","b",1,"female",22,104,1,2023
277.312140499998,0.689961000010953,"image_pos",0.474475800001528,"zoo","b",1,"female",22,104,1,2023
284.712475100008,0.69009570000344,"image_pos",0.457816399997682,"limousine","b",1,"female",22,104,1,2023
294.713349800004,0.689666300007957,"image_neg",0.440777299998445,"sandpaper","y",1,"female",22,104,1,2023
307.313463300001,0.69038559999899,"image_neg",0.541540999998688,"bridge","y",1,"female",22,104,1,2023
317.314046800006,0.689870100002736,"image_pos",0.674578799997107,"lake","b",1,"female",22,104,1,2023
324.714795000007,0.689775299993926,"image_pos",0.674239899992244,"spatula","b",1,"female",22,104,1,2023
337.315265500001,0.689648300001863,"image_neg",0.79340239999874,"mouse","y",1,"female",22,104,1,2023
347.315540700001,0.689577400000417,"image_neg",0.441226399998413,"lonely","y",1,"female",22,104,1,2023
354.716056800011,0.689808899987838,"image_pos",0.674670399996103,"woman","b",1,"female",22,104,1,2023
364.716354700009,0.689535600002273,"image_pos",0.458020399993984,"happy","b",1,"female",22,104,1,2023
374.716671900009,0.690229400002863,"image_pos",0.57483329999377,"garden","b",1,"female",22,104,1,2023
384.717835500007,0.689255599994794,"image_neg",0.573785899992799,"noun","y",1,"female",22,104,1,2023
394.71797350001,0.689590499998303,"image_neg",0.474627999996301,"hurricane","y",1,"female",22,104,1,2023
404.718059000006,0.69025240000343,"image_pos",0.558246600005077,"beer","b",1,"female",22,104,1,2023
417.319131900003,0.689867099994444,"image_neg",0.574356099998113,"keyboard","b",0,"female",22,104,1,2023
424.7195928,0.689838800011785,"image_neg",0.85774790000869,"famous","y",1,"female",22,104,1,2023
434.736823300002,0.689571700000613,"image_pos",0.741262800002005,"wealthy","b",1,"female",22,104,1,2023
444.7369531,0.69013730000006,"image_neg",0.624366000003647,"aggressive","y",1,"female",22,104,1,2023
454.7374537,0.689770099997986,"image_neg",0.807446800012258,"meeting","y",1,"female",22,104,1,2023
464.738000099998,0.690082500004792,"image_neg",0.574339200000395,"envy","y",1,"female",22,104,1,2023
474.73805,0.690185600004042,"image_neg",0.591763700009324,"tornado","y",1,"female",22,104,1,2023
484.739134300005,0.689833900003578,"image_neg",0.641129499999806,"hamster","y",1,"female",22,104,1,2023
494.739150699999,0.690177299999107,"image_neg",0.741904499998782,"victim","y",1,"female",22,104,1,2023
504.739885800009,0.689980900002411,"image_neg",0.707852599996841,"commander","y",1,"female",22,104,1,2023
517.3406101,0.690170900008525,"image_pos",0.991365599998971,"embassy","b",1,"female",22,104,1,2023
527.341019200001,0.689998900008504,"image_neg",0.908041000002413,"jury","y",1,"female",22,104,1,2023
534.741741700011,0.689258300000802,"image_neg",0.657488199998625,"truck","y",1,"female",22,104,1,2023
547.342182799999,0.68977630000154,"image_pos",0.757524400003604,"whale","b",1,"female",22,104,1,2023
554.744760700007,0.687465099996189,"image_neg",0.822128200001316,"field","y",1,"female",22,104,1,2023
564.743123500011,0.689636899987818,"image_neg",0.690926399998716,"tomato","y",1,"female",22,104,1,2023
574.743252600005,0.689865599997574,"image_neg",0.674879500002135,"bribe","y",1,"female",22,104,1,2023
587.344040900003,0.689405199998873,"image_pos",0.77436100000341,"pineapple","b",1,"female",22,104,1,2023
594.743818700008,0.690499999996973,"image_neg",0.691738299996359,"diplomat","y",1,"female",22,104,1,2023
0.983489400008693,0.688615099992603,"word_neg",1.02069520000077,"policeman","y",1,"female",22,104,1,2023
10.9758247999998,0.696942800001125,"word_pos",0.574483999997028,"new","b",1,"female",22,104,1,2023
20.9761532999983,0.69698540000536,"word_pos",0.623350299996673,"lemonade","b",1,"female",22,104,1,2023
30.9763558999985,0.697255000006407,"word_neg",0.840304700002889,"plot","y",1,"female",22,104,1,2023
40.9768442000059,0.697311399999307,"word_pos",0.691869700007373,"plum","b",1,"female",22,104,1,2023
50.9767038999998,0.697876500009443,"word_neg",0.557587799994508,"deceit","y",1,"female",22,104,1,2023
60.9776192999998,0.697318300008192,"word_pos",0.840652900005807,"oak","b",1,"female",22,104,1,2023
70.9791057000111,0.696569499996258,"word_neu",0.740835900011007,"fiddle","b",1,"female",22,104,1,2023
80.9794018000102,0.696250499997404,"word_pos",0.473349000007147,"love","b",1,"female",22,104,1,2023
90.9789653000044,0.697489300000584,"word_pos",0.690967599992291,"boat","b",1,"female",22,104,1,2023
100.980026400008,0.696731299991384,"word_neu",0.641109899996081,"corkscrew","y",1,"female",22,104,1,2023
110.980340800001,0.697163200005903,"word_pos",0.490553399999044,"beach","b",1,"female",22,104,1,2023
120.980083100003,0.697333000003724,"word_neu",0.774544200001401,"school","b",1,"female",22,104,1,2023
130.982822500009,0.695410399988759,"word_pos",0.55755450000288,"moral","b",1,"female",22,104,1,2023
140.980680200009,0.698386599993682,"word_neu",0.674509900010889,"fence","y",1,"female",22,104,1,2023
150.983817800006,0.695407999999588,"word_neu",0.675348199991276,"rocket","y",1,"female",22,104,1,2023
160.982068800004,0.697803600007319,"word_neu",0.67190689999552,"tourist","b",1,"female",22,104,1,2023
170.985191400003,0.695057100005215,"word_neg",0.474713500007056,"hospital","y",1,"female",22,104,1,2023
180.984245500003,0.696479499994894,"word_neg",0.424291599993012,"alligator","y",1,"female",22,104,1,2023
190.983012700002,0.697961400001077,"word_pos",0.524089499987895,"fun","b",1,"female",22,104,1,2023
200.984182,0.697523100010642,"word_neu",0.674809200005257,"treaty","y",1,"female",22,104,1,2023
211.000922100007,0.698181100000511,"word_neg",0.70789779999177,"avalanche","y",1,"female",22,104,1,2023
221.001394400009,0.69802389999677,"word_pos",0.425324199997703,"kiss","b",1,"female",22,104,1,2023
231.003469500007,0.696376299994853,"word_pos",0.441088399995351,"pie","b",1,"female",22,104,1,2023
241.002181100004,0.698166700007278,"word_neu",0.525090800001635,"man","y",1,"female",22,104,1,2023
251.002419199998,0.698673500010074,"word_neg",0.424891600006958,"gasp","y",1,"female",22,104,1,2023
261.003058700007,0.698283799996716,"word_pos",0.808200799991027,"sled","b",1,"female",22,104,1,2023
271.00564860001,0.696016899993992,"word_pos",0.474475800001528,"zoo","b",1,"female",22,104,1,2023
281.005595200011,0.696737899997913,"word_pos",0.457816399997682,"limousine","b",1,"female",22,104,1,2023
291.005153300008,0.697669100001804,"word_neg",0.440777299998445,"sandpaper","y",1,"female",22,104,1,2023
301.005449100005,0.697578199993586,"word_neu",0.541540999998688,"bridge","y",1,"female",22,104,1,2023
311.005341000011,0.698298699993757,"word_pos",0.674578799997107,"lake","b",1,"female",22,104,1,2023
321.006767900006,0.697662499995204,"word_neu",0.674239899992244,"spatula","b",1,"female",22,104,1,2023
331.007287,0.697425799997234,"word_neg",0.79340239999874,"mouse","y",1,"female",22,104,1,2023
341.007729900011,0.69759089998837,"word_neg",0.441226399998413,"lonely","y",1,"female",22,104,1,2023
351.007920700009,0.697738599992647,"word_pos",0.674670399996103,"woman","b",1,"female",22,104,1,2023
361.00876360001,0.697470699989992,"word_pos",0.458020399993984,"happy","b",1,"female",22,104,1,2023
371.008706699999,0.697895300007076,"word_pos",0.57483329999377,"garden","b",1,"female",22,104,1,2023
381.009198500004,0.698032900006979,"word_neu",0.573785899992799,"noun","y",1,"female",22,104,1,2023
391.010325200012,0.697185299999546,"word_neg",0.474627999996301,"hurricane","y",1,"female",22,104,1,2023
401.0101708,0.697957000011229,"word_neu",0.558246600005077,"beer","b",1,"female",22,104,1,2023
411.011280899998,0.696881500000018,"word_neu",0.574356099998113,"keyboard","b",0,"female",22,104,1,2023
421.01144100001,0.697486299992363,"word_neu",0.85774790000869,"famous","y",1,"female",22,104,1,2023
431.012150800001,0.697362799997791,"word_pos",0.741262800002005,"wealthy","b",1,"female",22,104,1,2023
441.029834300003,0.696975400001975,"word_neg",0.624366000003647,"aggressive","y",1,"female",22,104,1,2023
451.029941500004,0.697441900003525,"word_neg",0.807446800012258,"meeting","y",1,"female",22,104,1,2023
461.029509200001,0.698337399997399,"word_neg",0.574339200000395,"envy","y",1,"female",22,104,1,2023
471.030442100004,0.697784999996713,"word_neg",0.591763700009324,"tornado","y",1,"female",22,104,1,2023
481.031524500009,0.696947799995542,"word_neu",0.641129499999806,"hamster","y",1,"female",22,104,1,2023
491.031469400012,0.697649699999602,"word_neg",0.741904499998782,"victim","y",1,"female",22,104,1,2023
501.032073499999,0.697549300006358,"word_neg",0.707852599996841,"commander","y",1,"female",22,104,1,2023
511.032544600006,0.69759029999841,"word_neu",0.991365599998971,"embassy","b",1,"female",22,104,1,2023
521.0343307,0.696388399999705,"word_neg",0.908041000002413,"jury","y",1,"female",22,104,1,2023
531.0331267,0.697718800001894,"word_neu",0.657488199998625,"truck","y",1,"female",22,104,1,2023
541.033796700009,0.697466700003133,"word_neu",0.757524400003604,"whale","b",1,"female",22,104,1,2023
551.034687600011,0.699802299990552,"word_neu",0.822128200001316,"field","y",1,"female",22,104,1,2023
561.035345600001,0.697077700009686,"word_neu",0.690926399998716,"tomato","y",1,"female",22,104,1,2023
571.035671000005,0.697124099999201,"word_neg",0.674879500002135,"bribe","y",1,"female",22,104,1,2023
581.0360507,0.697168200000306,"word_pos",0.77436100000341,"pineapple","b",1,"female",22,104,1,2023
591.036284900008,0.697706799997832,"word_neg",0.691738299996359,"diplomat","y",1,"female",22,104,1,2023
7.29594830000133,0.686801600008039,"image_pos",0.738759500003653,"spaghetti","b",1,"female",22,104,2,2023
17.2934079000115,0.690132099989569,"image_neg",0.508415299991611,"tired","y",1,"female",22,104,2,2023
27.297218000007,0.686607700001332,"image_neg",0.521304900001269,"plea","y",1,"female",22,104,2,2023
37.2956181000045,0.688470599998254,"image_pos",0.623337199998787,"restaurant","b",1,"female",22,104,2,2023
47.2949969000038,0.689690900006099,"image_neg",0.608017200007453,"jaw","y",1,"female",22,104,2,2023
54.6960966000042,0.688892200007103,"image_pos",0.573996200007969,"optimism","b",1,"female",22,104,2,2023
67.2954973000014,0.690297699999064,"image_pos",0.591622300009476,"toaster","b",1,"female",22,104,2,2023
74.6957234000001,0.690635500010103,"image_neg",0.50848470001074,"problem","y",1,"female",22,104,2,2023
87.29627050001,0.690341199995601,"image_pos",0.658657399995718,"musical","b",1,"female",22,104,2,2023
94.6967967000091,0.690856400004137,"image_neg",0.508280599999125,"perjury","y",1,"female",22,104,2,2023
107.297427000012,0.690418399986825,"image_neg",0.558281299992814,"business","b",0,"female",22,104,2,2023
114.697996700008,0.690094799996601,"image_pos",0.608072300005006,"asparagus","b",1,"female",22,104,2,2023
127.2986446,0.690186800013194,"image_pos",0.824860900000203,"whole","b",1,"female",22,104,2,2023
134.698972900005,0.689697499998147,"image_pos",0.674817599996459,"monkey","b",1,"female",22,104,2,2023
144.70197010001,0.687681499999599,"image_pos",0.822410799999489,"piano","b",1,"female",22,104,2,2023
154.699932600008,0.68986009999935,"image_pos",0.591362099992693,"joke","b",1,"female",22,104,2,2023
167.300478000005,0.690395800003898,"image_neg",0.859046800003853,"cough","y",1,"female",22,104,2,2023
174.700713700004,0.690102699998533,"image_neg",1.0250839000073,"heavy","y",1,"female",22,104,2,2023
184.701262500006,0.6901469000004,"image_pos",0.541304400001536,"carnival","b",1,"female",22,104,2,2023
197.302164200009,0.689972799998969,"image_pos",0.774564599996665,"fireworks","b",1,"female",22,104,2,2023
207.302284800011,0.68991190000088,"image_pos",0.791795799988904,"day","b",1,"female",22,104,2,2023
217.302539600001,0.690516800008481,"image_neg",0.641735800003516,"scissors","y",1,"female",22,104,2,2023
224.703262300012,0.690172799993888,"image_neg",0.64156349998666,"clang","y",1,"female",22,104,2,2023
237.303687600011,0.690050399993197,"image_pos",0.558080299990252,"summer","b",1,"female",22,104,2,2023
244.704161900008,0.689908699991037,"image_neg",0.524762100001681,"ricochet","y",1,"female",22,104,2,2023
254.704755700004,0.689836899997317,"image_pos",0.727457900007721,"pan","b",1,"female",22,104,2,2023
267.305073800002,0.689874300005613,"image_pos",0.608069200010505,"chicken","b",1,"female",22,104,2,2023
277.305628400005,0.690260600007605,"image_pos",0.62481910000497,"power","b",1,"female",22,104,2,2023
287.322791300001,0.69057080001221,"image_neg",0.591489099999308,"lab","y",1,"female",22,104,2,2023
297.323326400001,0.690124300002992,"image_neg",0.524783800006844,"excuse","y",1,"female",22,104,2,2023
304.723774900005,0.689819799998133,"image_pos",0.657877899997402,"knowledge","b",1,"female",22,104,2,2023
317.326810400002,0.687774899997748,"image_neg",0.638603300001705,"angry","y",1,"female",22,104,2,2023
324.724577400004,0.690488599997479,"image_neg",0.791802300009294,"office","y",1,"female",22,104,2,2023
337.32525390001,0.690022800001259,"image_neg",0.674756399996113,"highway","y",1,"female",22,104,2,2023
344.725699600007,0.689942600001814,"image_neg",0.941580900005647,"theory","y",1,"female",22,104,2,2023
357.325880900011,0.690838399998029,"image_pos",0.541829199995846,"luck","b",1,"female",22,104,2,2023
364.726545600002,0.690143700005137,"image_neg",0.724726200001896,"street","y",1,"female",22,104,2,2023
374.726992700002,0.69026129999844,"image_neg",0.741704800006119,"nose","y",1,"female",22,104,2,2023
384.72748490001,0.690342599991709,"image_pos",0.54172870000184,"artist","b",1,"female",22,104,2,2023
397.327948800012,0.690175299998373,"image_neg",0.724701799990726,"apartment","y",1,"female",22,104,2,2023
404.728564600009,0.69007579999743,"image_pos",0.75868129999435,"vacation","b",1,"female",22,104,2,2023
417.329199800006,0.690394000004744,"image_pos",0.691946799997822,"barbecue","b",1,"female",22,104,2,2023
424.729188500001,0.690558600006682,"image_neg",0.724980300001334,"landslide","y",1,"female",22,104,2,2023
437.3297494,0.690488600011975,"image_neg",0.791989300007117,"stone","y",1,"female",22,104,2,2023
447.330423100007,0.690372800003388,"image_pos",0.85837509999692,"sailboat","b",1,"female",22,104,2,2023
454.731046900008,0.69001999999449,"image_neg",0.858242000002065,"winter","y",1,"female",22,104,2,2023
467.331761600013,0.690008699995815,"image_pos",0.708312299990212,"tree","b",1,"female",22,104,2,2023
474.734645100005,0.687318700001924,"image_neg",0.788675400006468,"axe","y",1,"female",22,104,2,2023
484.732355500004,0.690273000000161,"image_neg",0.574692499998491,"sick","y",1,"female",22,104,2,2023
494.732689000011,0.690097099999548,"image_neg",0.741683899992495,"van","y",1,"female",22,104,2,2023
507.333261200009,0.690240700001596,"image_neg",0.608479000002262,"hoe","y",1,"female",22,104,2,2023
514.734310800006,0.689608200002112,"image_pos",1.20789210000657,"mercy","b",1,"female",22,104,2,2023
524.734594300011,0.689945299993269,"image_pos",0.774769600000582,"eggplant","b",1,"female",22,104,2,2023
534.734566900006,0.690583500007051,"image_neg",0.808554000002914,"attribute","y",1,"female",22,104,2,2023
544.735076500001,0.690464600003907,"image_pos",0.708491500001401,"embrace","b",1,"female",22,104,2,2023
554.735853100006,0.690022199996747,"image_pos",0.741655399993761,"store","b",1,"female",22,104,2,2023
564.736873200003,0.689514800003963,"image_neg",0.723925800004508,"camel","y",1,"female",22,104,2,2023
574.736655700006,0.689948700004607,"image_pos",0.741941700005555,"speech","b",1,"female",22,104,2,2023
587.337178500005,0.69048930000281,"image_neg",0.527540399998543,"terrorist","y",1,"female",22,104,2,2023
597.337994400004,0.690054399994551,"image_pos",0.657974600006128,"verb","b",1,"female",22,104,2,2023
0.99478980001004,0.687913200003095,"word_pos",0.738759500003653,"spaghetti","b",1,"female",22,104,2,2023
10.9856919000013,0.697407600004228,"word_neg",0.508415299991611,"tired","y",1,"female",22,104,2,2023
20.9853807000036,0.698222200007876,"word_neg",0.521304900001269,"plea","y",1,"female",22,104,2,2023
30.9877340000094,0.696288199993432,"word_pos",0.623337199998787,"restaurant","b",1,"female",22,104,2,2023
40.9887912000122,0.69561049999902,"word_neg",0.608017200007453,"jaw","y",1,"female",22,104,2,2023
50.9880986000062,0.696995399994194,"word_pos",0.573996200007969,"optimism","b",1,"female",22,104,2,2023
60.9878965000098,0.69754519998969,"word_neu",0.591622300009476,"toaster","b",1,"female",22,104,2,2023
70.9890895999997,0.696662800008198,"word_neg",0.50848470001074,"problem","y",1,"female",22,104,2,2023
80.9895038000104,0.696796999996877,"word_pos",0.658657399995718,"musical","b",1,"female",22,104,2,2023
90.9898264000076,0.697105200000806,"word_neg",0.508280599999125,"perjury","y",1,"female",22,104,2,2023
100.989693300013,0.697680699988283,"word_neu",0.558281299992814,"business","b",0,"female",22,104,2,2023
110.99026250001,0.697654499992481,"word_neu",0.608072300005006,"asparagus","b",1,"female",22,104,2,2023
120.990445100004,0.697868100003703,"word_neu",0.824860900000203,"whole","b",1,"female",22,104,2,2023
130.991761199999,0.697278100007679,"word_neu",0.674817599996459,"monkey","b",1,"female",22,104,2,2023
140.991191699999,0.698214400006691,"word_pos",0.822410799999489,"piano","b",1,"female",22,104,2,2023
150.991303600007,0.698588300001575,"word_pos",0.591362099992693,"joke","b",1,"female",22,104,2,2023
160.99243150001,0.697971599991433,"word_neg",0.859046800003853,"cough","y",1,"female",22,104,2,2023
170.994035300013,0.69683649999206,"word_neg",1.0250839000073,"heavy","y",1,"female",22,104,2,2023
180.993472400005,0.697397299998613,"word_pos",0.541304400001536,"carnival","b",1,"female",22,104,2,2023
190.994678500007,0.697264300004491,"word_pos",0.774564599996665,"fireworks","b",1,"female",22,104,2,2023
200.99397180001,0.698233100003591,"word_pos",0.791795799988904,"day","b",1,"female",22,104,2,2023
210.9952624,0.697212500002934,"word_neu",0.641735800003516,"scissors","y",1,"female",22,104,2,2023
220.996439300012,0.696533299997071,"word_neg",0.64156349998666,"clang","y",1,"female",22,104,2,2023
230.99549880001,0.697998499992536,"word_pos",0.558080299990252,"summer","b",1,"female",22,104,2,2023
240.996444700009,0.697818999993586,"word_neg",0.524762100001681,"ricochet","y",1,"female",22,104,2,2023
250.99675050001,0.697921300001326,"word_neu",0.727457900007721,"pan","b",1,"female",22,104,2,2023
260.997866800011,0.697328999987803,"word_pos",0.608069200010505,"chicken","b",1,"female",22,104,2,2023
270.997540600001,0.698080300004221,"word_neu",0.62481910000497,"power","b",1,"female",22,104,2,2023
280.997462700005,0.698894700006349,"word_neg",0.591489099999308,"lab","y",1,"female",22,104,2,2023
291.0173163,0.695860400010133,"word_neg",0.524783800006844,"excuse","y",1,"female",22,104,2,2023
301.016758199999,0.697014500008663,"word_pos",0.657877899997402,"knowledge","b",1,"female",22,104,2,2023
311.016567300001,0.697794300009264,"word_neg",0.638603300001705,"angry","y",1,"female",22,104,2,2023
321.016705200003,0.698021800009883,"word_neg",0.791802300009294,"office","y",1,"female",22,104,2,2023
331.0182069,0.696932300008484,"word_neu",0.674756399996113,"highway","y",1,"female",22,104,2,2023
341.018048099999,0.697688000000198,"word_neu",0.941580900005647,"theory","y",1,"female",22,104,2,2023
351.018218900004,0.697878999999375,"word_pos",0.541829199995846,"luck","b",1,"female",22,104,2,2023
361.018656,0.697864900008426,"word_neu",0.724726200001896,"street","y",1,"female",22,104,2,2023
371.019113600007,0.697730700005252,"word_neu",0.741704800006119,"nose","y",1,"female",22,104,2,2023
381.01991480001,0.697696000002907,"word_pos",0.54172870000184,"artist","b",1,"female",22,104,2,2023
391.0206378,0.697600300001795,"word_neu",0.724701799990726,"apartment","y",1,"female",22,104,2,2023
401.02363570001,0.695017399993901,"word_pos",0.75868129999435,"vacation","b",1,"female",22,104,2,2023
411.021918800005,0.697263199996087,"word_pos",0.691946799997822,"barbecue","b",1,"female",22,104,2,2023
421.022693300008,0.696834200003707,"word_neg",0.724980300001334,"landslide","y",1,"female",22,104,2,2023
431.022995000007,0.696849300002214,"word_neg",0.791989300007117,"stone","y",1,"female",22,104,2,2023
441.023183500001,0.69723520000116,"word_pos",0.85837509999692,"sailboat","b",1,"female",22,104,2,2023
451.023673000003,0.697322000007262,"word_neu",0.858242000002065,"winter","y",1,"female",22,104,2,2023
461.0232885,0.698355300002731,"word_pos",0.708312299990212,"tree","b",1,"female",22,104,2,2023
471.023634600002,0.698308300008591,"word_neg",0.788675400006468,"axe","y",1,"female",22,104,2,2023
481.024432800012,0.697937099990668,"word_neg",0.574692499998491,"sick","y",1,"female",22,104,2,2023
491.024716800006,0.698178899998311,"word_neg",0.741683899992495,"van","y",1,"female",22,104,2,2023
501.025492000001,0.697987000006776,"word_neg",0.608479000002262,"hoe","y",1,"female",22,104,2,2023
511.026199,0.697506000011401,"word_pos",1.20789210000657,"mercy","b",1,"female",22,104,2,2023
521.026855400007,0.697014799996396,"word_neu",0.774769600000582,"eggplant","b",1,"female",22,104,2,2023
531.027759900011,0.696778300000005,"word_neu",0.808554000002914,"attribute","y",1,"female",22,104,2,2023
541.027576500011,0.697934999989229,"word_pos",0.708491500001401,"embrace","b",1,"female",22,104,2,2023
551.0280489,0.697846300012316,"word_neu",0.741655399993761,"store","b",1,"female",22,104,2,2023
561.028793900012,0.697474999993574,"word_neu",0.723925800004508,"camel","y",1,"female",22,104,2,2023
571.028964199999,0.697585900008562,"word_neu",0.741941700005555,"speech","b",1,"female",22,104,2,2023
581.0297231,0.697363300001598,"word_neg",0.527540399998543,"terrorist","y",1,"female",22,104,2,2023
591.029195400013,0.698164199988241,"word_neu",0.657974600006128,"verb","b",1,"female",22,104,2,2023
4.69045039999764,0.687423199997284,"image_pos",0.621934700000565,"saxophone","b",1,"female",22,104,3,2023
17.2887104999973,0.689698599991971,"image_neg",0.691014800002449,"radish","y",1,"female",22,104,3,2023
24.6893138000014,0.689369699990493,"image_neg",0.707535800000187,"tobacco","y",1,"female",22,104,3,2023
34.6902266999969,0.688560599999619,"image_pos",0.62355989999196,"park","b",1,"female",22,104,3,2023
44.6900563999952,0.689409800004789,"image_pos",0.640955499999109,"butterfly","b",1,"female",22,104,3,2023
57.2907828999887,0.689512200013269,"image_neg",0.573912300009397,"grievance","y",1,"female",22,104,3,2023
64.6914843999984,0.689285300002666,"image_pos",0.623572700002114,"bird","b",1,"female",22,104,3,2023
74.6918423999887,0.689483699999982,"image_pos",0.60968030001095,"computer","b",1,"female",22,104,3,2023
87.2924338000012,0.689468299999135,"image_pos",0.573947199998656,"symphony","b",1,"female",22,104,3,2023
94.6926370000001,0.689347999999896,"image_pos",0.590956999993068,"agreement","b",1,"female",22,104,3,2023
104.693174399988,0.689322300007902,"image_neg",0.790926500005298,"delirium","y",1,"female",22,104,3,2023
117.2935554,0.690085499998531,"image_pos",0.757845000000088,"coffee","b",1,"female",22,104,3,2023
124.695065899999,0.688478999989456,"image_neg",0.923465300002135,"harp","y",1,"female",22,104,3,2023
137.294725300002,0.689591499991366,"image_pos",0.740910599997733,"reality","b",1,"female",22,104,3,2023
144.695093799994,0.689232100005029,"image_pos",0.891145400004461,"car","b",1,"female",22,104,3,2023
157.295781299996,0.689802799999597,"image_neg",0.674217199994018,"belch","y",1,"female",22,104,3,2023
167.295985299992,0.689788300005603,"image_pos",0.824518000008538,"flute","b",1,"female",22,104,3,2023
174.696343599993,0.689712899998995,"image_neg",0.524479400002747,"trial","y",1,"female",22,104,3,2023
187.297061799996,0.689548399997847,"image_neg",0.640674700000091,"snub","y",1,"female",22,104,3,2023
194.697117999996,0.689679699993604,"image_neg",0.491079999992508,"shame","y",1,"female",22,104,3,2023
207.297718499991,0.689735100007965,"image_neg",0.691174899999169,"cabbage","y",1,"female",22,104,3,2023
217.298261399992,0.689842499996303,"image_neg",0.774570499997935,"dusty","y",1,"female",22,104,3,2023
227.298861499992,0.68968950000999,"image_pos",0.626578900002642,"egg","b",1,"female",22,104,3,2023
237.299254699988,0.69002550000738,"image_neg",0.774676000000909,"voter","y",1,"female",22,104,3,2023
247.29977469999,0.689770500001003,"image_neg",0.7244337000011,"spiritual","y",1,"female",22,104,3,2023
254.700056599992,0.689933300003759,"image_neg",0.791272200003732,"patent","y",1,"female",22,104,3,2023
267.300803399994,0.689581700004055,"image_neg",0.757650200001081,"reporter","y",1,"female",22,104,3,2023
274.701669799993,0.689237700004014,"image_pos",1.02385929999582,"tuba","b",1,"female",22,104,3,2023
287.301589199997,0.689973300002748,"image_neg",0.5076798999944,"cyclone","y",1,"female",22,104,3,2023
294.701978500001,0.689658699993743,"image_neg",0.740965799996047,"sum","y",1,"female",22,104,3,2023
307.302869199993,0.689441700000259,"image_pos",0.557645499997307,"family","b",1,"female",22,104,3,2023
314.702877499993,0.706370600004448,"image_pos",0.77453370000876,"raspberry","b",1,"female",22,104,3,2023
327.320443399993,0.689611599998898,"image_neg",0.707935900005396,"year","y",1,"female",22,104,3,2023
334.721138599998,0.689110999999684,"image_neg",0.80740109999897,"malice","y",1,"female",22,104,3,2023
344.721134899999,0.689678299997468,"image_pos",0.557757399990805,"jam","b",1,"female",22,104,3,2023
354.721533899996,0.689665199999581,"image_pos",0.774746199997026,"faucet","b",1,"female",22,104,3,2023
367.324615199992,0.687490199998081,"image_neg",0.605263999997987,"criminal","y",1,"female",22,104,3,2023
377.322340500003,0.690129899987369,"image_pos",0.807965199986938,"joy","b",1,"female",22,104,3,2023
384.723160299996,0.689645599995799,"image_pos",0.541127899996354,"gum","b",1,"female",22,104,3,2023
397.324039899991,0.689349300009781,"image_pos",0.540680899997824,"hope","b",1,"female",22,104,3,2023
404.724472599992,0.68929449999996,"image_pos",0.573724400004721,"pencil","b",1,"female",22,104,3,2023
414.724321199988,0.690126000001328,"image_neg",0.757923100012704,"pen","y",1,"female",22,104,3,2023
427.324999899996,0.690069899996161,"image_neg",0.824640499995439,"cabinet","y",1,"female",22,104,3,2023
437.325769899995,0.68949210000568,"image_pos",1.27403640000557,"toe","b",1,"female",22,104,3,2023
444.725865699991,0.68978440000501,"image_neg",0.691252900011023,"jungle","y",1,"female",22,104,3,2023
457.326773699999,0.689755799990962,"image_neg",0.724378600003547,"cold","y",1,"female",22,104,3,2023
464.7270193,0.689674299996113,"image_neg",0.691058700002031,"plane","y",1,"female",22,104,3,2023
477.328034299993,0.689307499997085,"image_pos",0.691153399995528,"fountain","b",1,"female",22,104,3,2023
484.7278104,0.689460599998654,"image_pos",0.841233400002238,"rose","b",1,"female",22,104,3,2023
497.329126700002,0.689090699990629,"image_neg",0.790528699988499,"volcano","y",1,"female",22,104,3,2023
507.329100399991,0.689736100000971,"image_pos",0.740868900000351,"goldfish","b",1,"female",22,104,3,2023
514.729217200002,0.689912299989373,"image_neg",0.890947399995639,"glass","y",1,"female",22,104,3,2023
527.330702299994,0.689001100006863,"image_neg",0.757287200001883,"foot","y",1,"female",22,104,3,2023
537.330317499989,0.689497900006245,"image_neg",0.774646100006066,"debate","y",1,"female",22,104,3,2023
544.730635,0.68992089999665,"image_pos",0.641387499999837,"couple","b",1,"female",22,104,3,2023
554.748066100001,0.689735599997221,"image_pos",0.724515399997472,"cafeteria","b",1,"female",22,104,3,2023
564.748167699989,0.689883300001384,"image_pos",0.824342100007925,"island","b",1,"female",22,104,3,2023
574.748438199997,0.690277899993816,"image_pos",0.741424299994833,"advantage","b",1,"female",22,104,3,2023
584.748760000002,0.690619499990134,"image_neg",0.708202800000436,"tax","y",1,"female",22,104,3,2023
594.749539299999,0.689580199992633,"image_pos",0.825011399996583,"witness","b",1,"female",22,104,3,2023
0.988993299994036,0.688916300001438,"word_pos",0.621934700000565,"saxophone","b",1,"female",22,104,3,2023
10.9816472999955,0.696578400005819,"word_neg",0.691014800002449,"radish","y",1,"female",22,104,3,2023
20.982977599997,0.695662700003592,"word_neg",0.707535800000187,"tobacco","y",1,"female",22,104,3,2023
30.9818161000003,0.697283499990593,"word_pos",0.62355989999196,"park","b",1,"female",22,104,3,2023
40.9838425999915,0.695652000009424,"word_pos",0.640955499999109,"butterfly","b",1,"female",22,104,3,2023
50.9842123999988,0.695569199990125,"word_neg",0.573912300009397,"grievance","y",1,"female",22,104,3,2023
60.9824661000021,0.69827289998647,"word_pos",0.623572700002114,"bird","b",1,"female",22,104,3,2023
70.984243999992,0.6968060000072,"word_pos",0.60968030001095,"computer","b",1,"female",22,104,3,2023
80.9835953000002,0.697873500001151,"word_pos",0.573947199998656,"symphony","b",1,"female",22,104,3,2023
90.9844118999899,0.697436900009066,"word_pos",0.590956999993068,"agreement","b",1,"female",22,104,3,2023
100.985114900002,0.697544700000435,"word_neg",0.790926500005298,"delirium","y",1,"female",22,104,3,2023
110.9851987,0.697819699998931,"word_pos",0.757845000000088,"coffee","b",1,"female",22,104,3,2023
120.987790799991,0.695296000005314,"word_neu",0.923465300002135,"harp","y",1,"female",22,104,3,2023
130.985702199992,0.698317000002163,"word_neu",0.740910599997733,"reality","b",1,"female",22,104,3,2023
140.98615859999,0.698096300009638,"word_pos",0.891145400004461,"car","b",1,"female",22,104,3,2023
150.987168199994,0.697738200004096,"word_neg",0.674217199994018,"belch","y",1,"female",22,104,3,2023
160.989956999998,0.695298399994499,"word_pos",0.824518000008538,"flute","b",1,"female",22,104,3,2023
170.987739999997,0.69817360000161,"word_neg",0.524479400002747,"trial","y",1,"female",22,104,3,2023
180.9882354,0.697712499997607,"word_neg",0.640674700000091,"snub","y",1,"female",22,104,3,2023
190.9888737,0.697854099998921,"word_neg",0.491079999992508,"shame","y",1,"female",22,104,3,2023
200.989726300002,0.69778979998955,"word_neg",0.691174899999169,"cabbage","y",1,"female",22,104,3,2023
210.989947099995,0.697758199996315,"word_neg",0.774570499997935,"dusty","y",1,"female",22,104,3,2023
220.991278299989,0.697257899999414,"word_neu",0.626578900002642,"egg","b",1,"female",22,104,3,2023
230.9916333,0.697167199992691,"word_neg",0.774676000000909,"voter","y",1,"female",22,104,3,2023
240.991931299999,0.697371799993562,"word_neu",0.7244337000011,"spiritual","y",1,"female",22,104,3,2023
250.992041699996,0.697724600002402,"word_neu",0.791272200003732,"patent","y",1,"female",22,104,3,2023
260.992439399997,0.697528599994257,"word_neg",0.757650200001081,"reporter","y",1,"female",22,104,3,2023
270.992190199991,0.698527500004275,"word_neu",1.02385929999582,"tuba","b",1,"female",22,104,3,2023
280.993812999994,0.697310700008529,"word_neg",0.5076798999944,"cyclone","y",1,"female",22,104,3,2023
290.993304599993,0.697907199995825,"word_neu",0.740965799996047,"sum","y",1,"female",22,104,3,2023
300.99506429999,0.696676600011415,"word_pos",0.557645499997307,"family","b",1,"female",22,104,3,2023
310.9947961,0.697762700001476,"word_pos",0.77453370000876,"raspberry","b",1,"female",22,104,3,2023
321.011841499989,0.698009600004298,"word_neu",0.707935900005396,"year","y",1,"female",22,104,3,2023
331.013591700001,0.696512700000312,"word_neg",0.80740109999897,"malice","y",1,"female",22,104,3,2023
341.014427199989,0.695881100007682,"word_neu",0.557757399990805,"jam","b",1,"female",22,104,3,2023
351.013498200002,0.697420999989845,"word_neu",0.774746199997026,"faucet","b",1,"female",22,104,3,2023
361.014170800001,0.697624299995368,"word_neg",0.605263999997987,"criminal","y",1,"female",22,104,3,2023
371.013989300001,0.698214199990559,"word_pos",0.807965199986938,"joy","b",1,"female",22,104,3,2023
381.014305799996,0.698469800001476,"word_neu",0.541127899996354,"gum","b",1,"female",22,104,3,2023
391.015055899989,0.697977100004209,"word_pos",0.540680899997824,"hope","b",1,"female",22,104,3,2023
401.015144399993,0.698447999995551,"word_neu",0.573724400004721,"pencil","b",1,"female",22,104,3,2023
411.015703799989,0.69820270000497,"word_neu",0.757923100012704,"pen","y",1,"female",22,104,3,2023
421.019574499995,0.694889499995099,"word_neu",0.824640499995439,"cabinet","y",1,"female",22,104,3,2023
431.016669399993,0.698428400006435,"word_neu",1.27403640000557,"toe","b",1,"female",22,104,3,2023
441.017847999989,0.697703300000285,"word_neu",0.691252900011023,"jungle","y",1,"female",22,104,3,2023
451.018579600001,0.697399700002279,"word_neg",0.724378600003547,"cold","y",1,"female",22,104,3,2023
461.021231599996,0.695231100005913,"word_neu",0.691058700002031,"plane","y",1,"female",22,104,3,2023
471.019553799997,0.697177299996838,"word_pos",0.691153399995528,"fountain","b",1,"female",22,104,3,2023
481.019173799999,0.698348699996131,"word_pos",0.841233400002238,"rose","b",1,"female",22,104,3,2023
491.0204619,0.697321699990368,"word_neg",0.790528699988499,"volcano","y",1,"female",22,104,3,2023
501.020552599992,0.697563900001114,"word_pos",0.740868900000351,"goldfish","b",1,"female",22,104,3,2023
511.022061899988,0.696832900008303,"word_neu",0.890947399995639,"glass","y",1,"female",22,104,3,2023
521.0213372,0.698230900001363,"word_neg",0.757287200001883,"foot","y",1,"female",22,104,3,2023
531.022092799991,0.697856500002672,"word_neg",0.774646100006066,"debate","y",1,"female",22,104,3,2023
541.023294999992,0.697053099996992,"word_pos",0.641387499999837,"couple","b",1,"female",22,104,3,2023
551.023591499994,0.713731299998472,"word_neu",0.724515399997472,"cafeteria","b",1,"female",22,104,3,2023
561.040829099991,0.697096200005035,"word_pos",0.824342100007925,"island","b",1,"female",22,104,3,2023
571.0415297,0.696828799991636,"word_pos",0.741424299994833,"advantage","b",1,"female",22,104,3,2023
581.04055379999,0.698427900002571,"word_neg",0.708202800000436,"tax","y",1,"female",22,104,3,2023
591.042847199991,0.696553800007678,"word_neu",0.825011399996583,"witness","b",1,"female",22,104,3,2023
4.69414550000511,0.68501169999945,"image_pos",0.452952599996934,"flower","b",1,"female",22,104,4,2023
17.2907176000008,0.688934300007531,"image_pos",0.573794100011582,"journalist","b",1,"female",22,104,4,2023
27.2916649000108,0.688740600002347,"image_neg",0.690050899997004,"battle","y",1,"female",22,104,4,2023
34.6909907000081,0.689567699999316,"image_pos",0.557339099992532,"bonfire","b",1,"female",22,104,4,2023
47.2918311000103,0.691898599994609,"image_neg",0.54064870000002,"pig","y",1,"female",22,104,4,2023
57.2920349000051,0.689497300001676,"image_pos",0.708264400003827,"truce","b",1,"female",22,104,4,2023
64.6927262000099,0.68949989999237,"image_pos",0.723750799996196,"harmonica","b",1,"female",22,104,4,2023
74.6945264000096,0.687615299990284,"image_pos",0.539232499999343,"peace","b",1,"female",22,104,4,2023
87.2930923000094,0.689645399994333,"image_neg",0.641924499999732,"accident","y",1,"female",22,104,4,2023
97.293974900007,0.690048100004788,"image_neg",0.590972000005422,"shoulder","y",1,"female",22,104,4,2023
104.6944449,0.68982070000493,"image_neg",0.524045000012848,"snake","y",1,"female",22,104,4,2023
117.295201700006,0.689468199998359,"image_neg",0.773881899993285,"hall","y",1,"female",22,104,4,2023
127.296251300009,0.688616999992519,"image_pos",0.773404399995343,"kitchen","b",1,"female",22,104,4,2023
134.696030900013,0.689636699986295,"image_pos",0.658472600000096,"bay","b",1,"female",22,104,4,2023
147.298057000007,0.688066899994766,"image_neg",0.673450600006618,"scientist","y",1,"female",22,104,4,2023
154.698173200013,0.687943199998699,"image_neg",1.03960799999186,"fallacy","y",1,"female",22,104,4,2023
167.2979547,0.68938410001283,"image_pos",0.740550300004543,"theme","b",1,"female",22,104,4,2023
177.29872820001,0.688731399990502,"image_neg",0.773355600002105,"empty","y",1,"female",22,104,4,2023
187.300958300009,0.686841200003954,"image_neg",0.638128499995219,"team","y",1,"female",22,104,4,2023
194.698454800004,0.689655900001526,"image_neg",0.708480700006476,"denial","y",1,"female",22,104,4,2023
207.300917600005,0.687918700001347,"image_neg",0.756172000008519,"flood","y",1,"female",22,104,4,2023
214.69949140001,0.689907499996508,"image_pos",0.977055700001074,"worker","b",1,"female",22,104,4,2023
224.701522500007,0.687886200001259,"image_pos",0.75609959999565,"hand","b",1,"female",22,104,4,2023
237.300338000001,0.6898519000097,"image_neg",1.00769610000134,"stampede","y",1,"female",22,104,4,2023
247.301051400005,0.689818900005776,"image_neg",0.774229300004663,"torment","y",1,"female",22,104,4,2023
254.7017834,0.689769000004162,"image_neg",0.673860000009881,"door","y",1,"female",22,104,4,2023
267.30278350001,0.691408099999535,"image_pos",0.540180999989389,"bread","b",1,"female",22,104,4,2023
277.302600200012,0.689786699993419,"image_pos",0.75763609999558,"festival","b",1,"female",22,104,4,2023
284.702780600011,0.689654100002372,"image_pos",0.508128899993608,"bicycle","b",1,"female",22,104,4,2023
297.303643800013,0.692165199987357,"image_neg",0.707784099999117,"chestnut","y",1,"female",22,104,4,2023
304.703960300001,0.689495099999476,"image_pos",0.60761160000402,"honey","b",1,"female",22,104,4,2023
314.704219600011,0.689872299990327,"image_pos",0.74127579999913,"lust","b",1,"female",22,104,4,2023
327.305175500005,0.689179099994362,"image_pos",0.59093180000491,"gratitude","b",1,"female",22,104,4,2023
334.705181200014,0.689757799991639,"image_neg",0.791267799999332,"circus","y",1,"female",22,104,4,2023
347.305811700004,0.692446800007019,"image_neg",0.725929899999755,"scream","y",1,"female",22,104,4,2023
354.706436800014,0.689351699998952,"image_neg",0.758183899990399,"expensive","y",1,"female",22,104,4,2023
364.706783300004,0.69002110000298,"image_neg",0.874769100002595,"majority","y",1,"female",22,104,4,2023
374.708505800008,0.688586000003852,"image_neg",0.740141599992057,"elevator","y",1,"female",22,104,4,2023
387.3079726,0.689505800008249,"image_neg",1.07450130001234,"businessman","y",1,"female",22,104,4,2023
394.707989000002,0.689798600011272,"image_neg",0.711386000009952,"loan","y",1,"female",22,104,4,2023
404.708835900004,0.689851999995938,"image_pos",0.691148099998827,"guard","b",1,"female",22,104,4,2023
417.309644400011,0.689331799992885,"image_pos",0.759875199990347,"parent","b",1,"female",22,104,4,2023
427.310069600004,0.689698500005761,"image_neg",0.793094399996335,"animosity","y",1,"female",22,104,4,2023
434.709749500005,0.690041499998188,"image_neg",0.642659799996181,"boy","y",1,"female",22,104,4,2023
444.71049930001,0.69027569999156,"image_pos",0.808254399991711,"put","b",1,"female",22,104,4,2023
457.311124400003,0.690155600008438,"image_neg",0.725720700007514,"mouth","y",1,"female",22,104,4,2023
467.311864500007,0.689647000006516,"image_pos",0.825568300002487,"red","b",1,"female",22,104,4,2023
474.71224020001,0.689293399991527,"image_pos",0.707052500001737,"banjo","b",1,"female",22,104,4,2023
484.713298400005,0.688824199998635,"image_neg",0.65734400000656,"saw","y",1,"female",22,104,4,2023
497.3129548,0.689545900007943,"image_pos",0.674447100012912,"bell","b",1,"female",22,104,4,2023
504.713428400006,0.689924799997243,"image_neg",0.640912700007902,"insult","y",1,"female",22,104,4,2023
514.714413400012,0.688959399994928,"image_pos",0.541932899999665,"wonder","b",1,"female",22,104,4,2023
527.315190300011,0.689503799992963,"image_neg",0.524048699997365,"court","y",1,"female",22,104,4,2023
534.71506100001,0.689800199994352,"image_pos",0.607608799997251,"dog","b",1,"female",22,104,4,2023
544.716212800005,0.688781100005144,"image_pos",0.473285400003078,"trust","b",1,"female",22,104,4,2023
554.732462800006,0.68947979999939,"image_pos",0.543605700004264,"choir","b",1,"female",22,104,4,2023
564.732835900009,0.690154399999301,"image_neg",0.84106979999342,"zone","y",1,"female",22,104,4,2023
577.334078200001,0.689335400005803,"image_pos",0.757704500007094,"heroism","b",1,"female",22,104,4,2023
584.73451770001,0.689403500000481,"image_neg",0.824336199992104,"explosion","y",1,"female",22,104,4,2023
597.334826400009,0.69209779999801,"image_pos",0.740956199995708,"baseball","b",1,"female",22,104,4,2023
0.98824040000909,0.69330459999037,"word_pos",0.452952599996934,"flower","b",1,"female",22,104,4,2023
10.9865271000017,0.692811200002323,"word_neu",0.573794100011582,"journalist","b",1,"female",22,104,4,2023
20.9821949000034,0.700301800010493,"word_neg",0.690050899997004,"battle","y",1,"female",22,104,4,2023
30.984114100007,0.698725299997022,"word_pos",0.557339099992532,"bonfire","b",1,"female",22,104,4,2023
40.9840191000112,0.696466399997007,"word_neg",0.54064870000002,"pig","y",1,"female",22,104,4,2023
50.9842663000018,0.697156800000819,"word_pos",0.708264400003827,"truce","b",1,"female",22,104,4,2023
60.9852623000043,0.696651400008712,"word_pos",0.723750799996196,"harmonica","b",1,"female",22,104,4,2023
70.984752400007,0.697365800006082,"word_pos",0.539232499999343,"peace","b",1,"female",22,104,4,2023
80.9851155000069,0.697539000000688,"word_neg",0.641924499999732,"accident","y",1,"female",22,104,4,2023
90.9869679000112,0.696427099988796,"word_neu",0.590972000005422,"shoulder","y",1,"female",22,104,4,2023
100.990102800002,0.693411000000197,"word_neg",0.524045000012848,"snake","y",1,"female",22,104,4,2023
110.987593400001,0.696491400012746,"word_neu",0.773881899993285,"hall","y",1,"female",22,104,4,2023
120.986707100004,0.698053300002357,"word_pos",0.773404399995343,"kitchen","b",1,"female",22,104,4,2023
130.988073800007,0.697137800001656,"word_pos",0.658472600000096,"bay","b",1,"female",22,104,4,2023
140.98932790001,0.698852300003637,"word_neu",0.673450600006618,"scientist","y",1,"female",22,104,4,2023
150.9894298,0.696606700003031,"word_neg",1.03960799999186,"fallacy","y",1,"female",22,104,4,2023
160.9890571,0.697638700003154,"word_neu",0.740550300004543,"theme","b",1,"female",22,104,4,2023
170.988818700003,0.698540099998354,"word_neg",0.773355600002105,"empty","y",1,"female",22,104,4,2023
180.989173000009,0.698338200003434,"word_neu",0.638128499995219,"team","y",1,"female",22,104,4,2023
190.991404800006,0.697000600004714,"word_neg",0.708480700006476,"denial","y",1,"female",22,104,4,2023
200.990829400005,0.697348900008365,"word_neg",0.756172000008519,"flood","y",1,"female",22,104,4,2023
210.992725100004,0.696221400008625,"word_neu",0.977055700001074,"worker","b",1,"female",22,104,4,2023
220.991718600009,0.69764230000149,"word_neu",0.75609959999565,"hand","b",1,"female",22,104,4,2023
230.994885800013,0.695469499987666,"word_neg",1.00769610000134,"stampede","y",1,"female",22,104,4,2023
240.993079000007,0.697192999999942,"word_neg",0.774229300004663,"torment","y",1,"female",22,104,4,2023
250.992820600004,0.698005900005228,"word_neu",0.673860000009881,"door","y",1,"female",22,104,4,2023
260.993709600007,0.697741600000882,"word_pos",0.540180999989389,"bread","b",1,"female",22,104,4,2023
270.995742300001,0.696205900007044,"word_pos",0.75763609999558,"festival","b",1,"female",22,104,4,2023
280.994704900004,0.6973130999977,"word_pos",0.508128899993608,"bicycle","b",1,"female",22,104,4,2023
290.994826200011,0.69779859999835,"word_neu",0.707784099999117,"chestnut","y",1,"female",22,104,4,2023
300.997032700005,0.696462100007921,"word_pos",0.60761160000402,"honey","b",1,"female",22,104,4,2023
310.995284400007,0.69826550000289,"word_pos",0.74127579999913,"lust","b",1,"female",22,104,4,2023
320.998683400001,0.695550200005528,"word_pos",0.59093180000491,"gratitude","b",1,"female",22,104,4,2023
330.99829090001,0.696921299997484,"word_neu",0.791267799999332,"circus","y",1,"female",22,104,4,2023
340.997688700008,0.697654100004002,"word_neg",0.725929899999755,"scream","y",1,"female",22,104,4,2023
350.999535300012,0.69878880000033,"word_neg",0.758183899990399,"expensive","y",1,"female",22,104,4,2023
360.999016500005,0.697280399996146,"word_neg",0.874769100002595,"majority","y",1,"female",22,104,4,2023
370.99895980001,0.697860300002503,"word_neu",0.740141599992057,"elevator","y",1,"female",22,104,4,2023
381.000055700002,0.697000500003981,"word_neu",1.07450130001234,"businessman","y",1,"female",22,104,4,2023
391.000276100007,0.69727000000421,"word_neg",0.711386000009952,"loan","y",1,"female",22,104,4,2023
401.00025930001,0.698053999993192,"word_neu",0.691148099998827,"guard","b",1,"female",22,104,4,2023
411.000701100013,0.69838269999309,"word_pos",0.759875199990347,"parent","b",1,"female",22,104,4,2023
421.001439600004,0.697362899998609,"word_neg",0.793094399996335,"animosity","y",1,"female",22,104,4,2023
431.000978399999,0.69902100000769,"word_neu",0.642659799996181,"boy","y",1,"female",22,104,4,2023
441.001869,0.698515300013241,"word_neu",0.808254399991711,"put","b",1,"female",22,104,4,2023
451.00285650001,0.697891699994216,"word_neu",0.725720700007514,"mouth","y",1,"female",22,104,4,2023
461.002746700004,0.698281400007545,"word_neu",0.825568300002487,"red","b",1,"female",22,104,4,2023
471.004034100013,0.697555199993076,"word_pos",0.707052500001737,"banjo","b",1,"female",22,104,4,2023
481.003333700006,0.698756800004048,"word_neg",0.65734400000656,"saw","y",1,"female",22,104,4,2023
491.004256600005,0.698289899999452,"word_neu",0.674447100012912,"bell","b",1,"female",22,104,4,2023
501.005408600002,0.697491099999809,"word_neg",0.640912700007902,"insult","y",1,"female",22,104,4,2023
511.005243900014,0.698400099994672,"word_pos",0.541932899999665,"wonder","b",1,"female",22,104,4,2023
521.00754250001,0.69651709999016,"word_neg",0.524048699997365,"court","y",1,"female",22,104,4,2023
531.005869600005,0.698672900005477,"word_pos",0.607608799997251,"dog","b",1,"female",22,104,4,2023
541.006344100009,0.698989099997561,"word_pos",0.473285400003078,"trust","b",1,"female",22,104,4,2023
551.025079500003,0.696828800006188,"word_pos",0.543605700004264,"choir","b",1,"female",22,104,4,2023
561.029502100006,0.692763500002911,"word_neg",0.84106979999342,"zone","y",1,"female",22,104,4,2023
571.026001800012,0.697054199990816,"word_pos",0.757704500007094,"heroism","b",1,"female",22,104,4,2023
581.026071500004,0.69780150000588,"word_neg",0.824336199992104,"explosion","y",1,"female",22,104,4,2023
591.028827000002,0.695174899999984,"word_neu",0.740956199995708,"baseball","b",1,"female",22,104,4,2023
7.29064799999469,0.68698779999977,"image_neg",0.639251900007366,"stapler","y",1,"female",22,104,5,2023
17.2888762999937,0.688876100000925,"image_neg",0.440407000001869,"riot","y",1,"female",22,104,5,2023
27.2896838000015,0.688716299991938,"image_neg",0.758038100000704,"mandolin","y",1,"female",22,104,5,2023
37.2916666999954,0.687520999999833,"image_pos",0.656116600002861,"newspaper","b",1,"female",22,104,5,2023
47.2935513999983,0.686086700006854,"image_neg",0.739201100004721,"curse","y",1,"female",22,104,5,2023
57.290145299994,0.690179900004296,"image_neg",0.724679999999353,"corn","y",1,"female",22,104,5,2023
67.2906725999928,0.690409300004831,"image_pos",0.725173700004234,"wit","b",1,"female",22,104,5,2023
77.2909859999927,0.690117100006319,"image_pos",0.642951300003915,"carrot","b",1,"female",22,104,5,2023
87.2934945000015,0.688015099993208,"image_neg",0.738813699994353,"cab","y",1,"female",22,104,5,2023
97.2937072999921,0.688756800009301,"image_neg",0.724372500000754,"bus","y",1,"female",22,104,5,2023
104.692680099994,0.690157300006845,"image_neg",0.907252400007565,"ticket","y",1,"female",22,104,5,2023
117.293548600006,0.689409999991767,"image_pos",0.673692899988964,"bed","b",1,"female",22,104,5,2023
127.293773099998,0.689463600007002,"image_neg",0.724580399997649,"hierarchy","y",1,"female",22,104,5,2023
134.695433600005,0.688171699992381,"image_pos",0.72551819999353,"water","b",1,"female",22,104,5,2023
147.295961099997,0.688218499999493,"image_pos",0.672999999995227,"dime","b",1,"female",22,104,5,2023
157.296780000004,0.688016899992363,"image_pos",0.740259799989872,"tangerine","b",1,"female",22,104,5,2023
164.695196999994,0.69002600001113,"image_neg",0.60972400000901,"dictation","y",1,"female",22,104,5,2023
177.2962998,0.689535099998466,"image_neg",0.740809099996113,"mosquito","y",1,"female",22,104,5,2023
187.298308500001,0.687939900002647,"image_neg",0.773094100004528,"ant","y",1,"female",22,104,5,2023
197.297876900004,0.689441700000316,"image_neg",0.823600699994131,"number","y",1,"female",22,104,5,2023
204.697765799996,0.68926769999959,"image_pos",0.761381800009985,"awe","b",1,"female",22,104,5,2023
217.299687799998,0.688500200005365,"image_pos",0.540109800000209,"tea","b",1,"female",22,104,5,2023
224.700879800002,0.687739599990891,"image_neg",0.838805399995181,"arm","y",1,"female",22,104,5,2023
234.698413799997,0.690658899999079,"image_neg",0.691976400004933,"mob","y",1,"female",22,104,5,2023
244.700844199993,0.68852440000046,"image_neg",0.839447000005748,"apricot","y",1,"female",22,104,5,2023
254.699861600006,0.689458799999528,"image_neg",0.857903299998725,"screech","y",1,"female",22,104,5,2023
264.700318499992,0.689734400002692,"image_neg",0.708100100004231,"banker","y",1,"female",22,104,5,2023
277.300971899997,0.689505400005146,"image_neg",0.757732600002782,"editor","y",1,"female",22,104,5,2023
287.305005899994,0.686017800006141,"image_neg",0.554034500004491,"dread","y",1,"female",22,104,5,2023
294.702441300004,0.689001099992254,"image_pos",0.509894399991026,"applause","b",1,"female",22,104,5,2023
307.301975199996,0.689991699997336,"image_pos",0.574909100003424,"theater","b",1,"female",22,104,5,2023
314.705745800005,0.68728289999126,"image_pos",0.706212999997661,"spring","b",1,"female",22,104,5,2023
327.303615800003,0.689376399997855,"image_neg",0.757445700000972,"mushroom","y",1,"female",22,104,5,2023
334.703826199999,0.689640500000621,"image_neg",0.659302800006117,"dangerous","y",1,"female",22,104,5,2023
344.705850700004,0.688572699989891,"image_pos",0.607553900001221,"tulip","b",1,"female",22,104,5,2023
354.707861300005,0.689213299992844,"image_neg",0.604392900000676,"whine","y",1,"female",22,104,5,2023
364.705785600003,0.691833599994425,"image_pos",0.841447500002687,"book","b",1,"female",22,104,5,2023
377.305587900002,0.690120100000115,"image_neg",0.725005699991016,"vice","y",1,"female",22,104,5,2023
384.708657299998,0.687567000000854,"image_pos",0.522657099994831,"company","b",1,"female",22,104,5,2023
397.306634499997,0.689517899998464,"image_pos",0.69059460000426,"penguin","b",1,"female",22,104,5,2023
407.307902500004,0.688697399993544,"image_neg",0.840299599993159,"election","y",1,"female",22,104,5,2023
417.308291199995,0.689097299997343,"image_pos",0.540572400001111,"peaceful","b",1,"female",22,104,5,2023
427.308781700005,0.688969399998314,"image_neg",0.623661799996626,"umbrella","y",1,"female",22,104,5,2023
434.708550700001,0.690133500000286,"image_pos",0.591120299999602,"desk","b",1,"female",22,104,5,2023
447.309850899997,0.68948860000819,"image_neg",0.507006500003627,"grief","y",1,"female",22,104,5,2023
457.3263267,0.689410299994108,"image_pos",0.757673500003875,"clue","b",1,"female",22,104,5,2023
464.726765300002,0.689424500000257,"image_neg",0.574645400003647,"army","y",1,"female",22,104,5,2023
477.330949499999,0.686254999993309,"image_neg",0.503874300004099,"jealousy","y",1,"female",22,104,5,2023
484.727435699999,0.690004100004387,"image_neg",0.458395900001051,"dead","y",1,"female",22,104,5,2023
494.728614799998,0.689762900001369,"image_pos",0.491891300000134,"intellect","b",1,"female",22,104,5,2023
504.728448299997,0.690151700007789,"image_pos",0.557669900008477,"cash","b",1,"female",22,104,5,2023
517.331475700004,0.687720099987928,"image_pos",0.622285499994177,"drum","b",1,"female",22,104,5,2023
524.729409899999,0.689935100002913,"image_neg",1.17452840000624,"engineer","y",1,"female",22,104,5,2023
534.7307248,0.689360399992438,"image_pos",0.67325069999788,"cherry","b",1,"female",22,104,5,2023
547.332552499996,0.690507799998159,"image_pos",0.572459100003471,"hairbrush","b",1,"female",22,104,5,2023
557.331413199994,0.689513900011661,"image_pos",0.659889200003818,"morning","b",1,"female",22,104,5,2023
564.734114699997,0.6870471000002,"image_pos",0.971737200001371,"friendly","b",1,"female",22,104,5,2023
577.331966900005,0.689669399987906,"image_pos",0.691272199997911,"rum","b",1,"female",22,104,5,2023
587.3329696,0.689235600002576,"image_pos",0.690655900005368,"television","b",1,"female",22,104,5,2023
594.732747500006,0.690069799995399,"image_neg",0.741265199991176,"ambulance","y",1,"female",22,104,5,2023
0.988091999999597,0.689611499998136,"word_neu",0.639251900007366,"stapler","y",1,"female",22,104,5,2023
10.981411899993,0.696339400004945,"word_neg",0.440407000001869,"riot","y",1,"female",22,104,5,2023
20.9817667000025,0.69639739999548,"word_neu",0.758038100000704,"mandolin","y",1,"female",22,104,5,2023
30.9834183000057,0.695331399998395,"word_neu",0.656116600002861,"newspaper","b",1,"female",22,104,5,2023
40.9827781000058,0.696296099995386,"word_neg",0.739201100004721,"curse","y",1,"female",22,104,5,2023
50.9819416999962,0.698337299996638,"word_neu",0.724679999999353,"corn","y",1,"female",22,104,5,2023
60.9830707999936,0.697171500010889,"word_pos",0.725173700004234,"wit","b",1,"female",22,104,5,2023
70.9867621000012,0.694373899998027,"word_neu",0.642951300003915,"carrot","b",1,"female",22,104,5,2023
80.9847284999996,0.696817499992903,"word_neg",0.738813699994353,"cab","y",1,"female",22,104,5,2023
90.9834361999965,0.698637199995574,"word_neu",0.724372500000754,"bus","y",1,"female",22,104,5,2023
100.985117399992,0.696969399999929,"word_neu",0.907252400007565,"ticket","y",1,"female",22,104,5,2023
110.985724500002,0.697018199993167,"word_pos",0.673692899988964,"bed","b",1,"female",22,104,5,2023
120.986751599994,0.696810800000094,"word_neg",0.724580399997649,"hierarchy","y",1,"female",22,104,5,2023
130.988702400005,0.694818099989789,"word_pos",0.72551819999353,"water","b",1,"female",22,104,5,2023
140.985593499994,0.698588100000052,"word_neu",0.672999999995227,"dime","b",1,"female",22,104,5,2023
150.987610199998,0.69697069999529,"word_pos",0.740259799989872,"tangerine","b",1,"female",22,104,5,2023
160.988563199993,0.696681800007354,"word_neg",0.60972400000901,"dictation","y",1,"female",22,104,5,2023
170.988884799997,0.69658299999719,"word_neg",0.740809099996113,"mosquito","y",1,"female",22,104,5,2023
180.9882507,0.69777489999251,"word_neg",0.773094100004528,"ant","y",1,"female",22,104,5,2023
190.9906491,0.695868099996005,"word_neu",0.823600699994131,"number","y",1,"female",22,104,5,2023
200.990048199994,0.696838200005004,"word_pos",0.761381800009985,"awe","b",1,"female",22,104,5,2023
210.991695200006,0.695594299992081,"word_pos",0.540109800000209,"tea","b",1,"female",22,104,5,2023
220.989751300003,0.698258899996262,"word_neu",0.838805399995181,"arm","y",1,"female",22,104,5,2023
230.994071399997,0.693939200005786,"word_neg",0.691976400004933,"mob","y",1,"female",22,104,5,2023
240.992579099999,0.696744500004598,"word_neu",0.839447000005748,"apricot","y",1,"female",22,104,5,2023
250.992528400006,0.696804499995721,"word_neg",0.857903299998725,"screech","y",1,"female",22,104,5,2023
260.993120999992,0.699519800007693,"word_neg",0.708100100004231,"banker","y",1,"female",22,104,5,2023
270.9926653,0.697577500002808,"word_neu",0.757732600002782,"editor","y",1,"female",22,104,5,2023
280.994969499996,0.695992299995851,"word_neg",0.554034500004491,"dread","y",1,"female",22,104,5,2023
290.993444399995,0.69840639999893,"word_pos",0.509894399991026,"applause","b",1,"female",22,104,5,2023
300.9936456,0.698293800000101,"word_pos",0.574909100003424,"theater","b",1,"female",22,104,5,2023
310.994710999992,0.697526300005848,"word_pos",0.706212999997661,"spring","b",1,"female",22,104,5,2023
320.994984399993,0.697663099999772,"word_neu",0.757445700000972,"mushroom","y",1,"female",22,104,5,2023
330.9954019,0.697379699995508,"word_neg",0.659302800006117,"dangerous","y",1,"female",22,104,5,2023
340.997204200001,0.696495299998787,"word_pos",0.607553900001221,"tulip","b",1,"female",22,104,5,2023
350.996755600005,0.697911299997941,"word_neg",0.604392900000676,"whine","y",1,"female",22,104,5,2023
360.9962485,0.698348799996779,"word_pos",0.841447500002687,"book","b",1,"female",22,104,5,2023
371.000968199994,0.694345199997827,"word_neg",0.725005699991016,"vice","y",1,"female",22,104,5,2023
380.999712599994,0.695844100002432,"word_neu",0.522657099994831,"company","b",1,"female",22,104,5,2023
390.998397799995,0.698244200000772,"word_pos",0.69059460000426,"penguin","b",1,"female",22,104,5,2023
400.998768499994,0.698396000007108,"word_neg",0.840299599993159,"election","y",1,"female",22,104,5,2023
411.000514600004,0.696464199994807,"word_pos",0.540572400001111,"peaceful","b",1,"female",22,104,5,2023
421.002028699993,0.695533900012379,"word_neu",0.623661799996626,"umbrella","y",1,"female",22,104,5,2023
430.999471300005,0.698569499989389,"word_neu",0.591120299999602,"desk","b",1,"female",22,104,5,2023
441.000937299992,0.697561900000437,"word_neg",0.507006500003627,"grief","y",1,"female",22,104,5,2023
451.018523699997,0.697486300006801,"word_neu",0.757673500003875,"clue","b",1,"female",22,104,5,2023
461.018123699992,0.698358000008852,"word_neg",0.574645400003647,"army","y",1,"female",22,104,5,2023
471.022955499997,0.694061500005716,"word_neg",0.503874300004099,"jealousy","y",1,"female",22,104,5,2023
481.018978399996,0.698363100003917,"word_neg",0.458395900001051,"dead","y",1,"female",22,104,5,2023
491.020236299999,0.697182100004341,"word_pos",0.491891300000134,"intellect","b",1,"female",22,104,5,2023
501.020351500003,0.697718700001133,"word_pos",0.557669900008477,"cash","b",1,"female",22,104,5,2023
511.020529400004,0.698468499991577,"word_pos",0.622285499994177,"drum","b",1,"female",22,104,5,2023
521.022709600002,0.696419100000639,"word_neu",1.17452840000624,"engineer","y",1,"female",22,104,5,2023
531.0246358,0.694728200003738,"word_pos",0.67325069999788,"cherry","b",1,"female",22,104,5,2023
541.025253300002,0.694513199996436,"word_neu",0.572459100003471,"hairbrush","b",1,"female",22,104,5,2023
551.024535699995,0.698583000004874,"word_pos",0.659889200003818,"morning","b",1,"female",22,104,5,2023
561.0246472,0.696349199992255,"word_pos",0.971737200001371,"friendly","b",1,"female",22,104,5,2023
571.024095500004,0.700004699989222,"word_neu",0.691272199997911,"rum","b",1,"female",22,104,5,2023
581.024981900002,0.697395199997118,"word_pos",0.690655900005368,"television","b",1,"female",22,104,5,2023
591.027111100004,0.695004799999879,"word_neg",0.741265199991176,"ambulance","y",1,"female",22,104,5,2023
4.69954130001133,0.68654909999168,"image_neg",0.75532640000165,"folly","y",1,"female",22,104,6,2023
17.2982155000063,0.688911799996276,"image_pos",0.627259800006868,"parade","b",1,"female",22,104,6,2023
24.6986205000139,0.688816699999734,"image_pos",0.740801499996451,"church","b",1,"female",22,104,6,2023
34.6999110000033,0.687540900005843,"image_neg",0.758274599997094,"old","y",1,"female",22,104,6,2023
44.6987953000062,0.68919079999614,"image_neg",0.557523099996615,"protest","y",1,"female",22,104,6,2023
54.6987202000018,0.692578700007296,"image_pos",0.54224830000021,"chocolate","b",1,"female",22,104,6,2023
64.6999339000031,0.689387600010377,"image_pos",0.541241800005082,"advice","b",1,"female",22,104,6,2023
74.7022433000093,0.687554499992984,"image_pos",0.688844799995422,"analogy","b",1,"female",22,104,6,2023
87.3011409000028,0.689651100008632,"image_neg",0.607806900006835,"big","y",1,"female",22,104,6,2023
97.3014500000136,0.689822999993353,"image_pos",0.724990499991691,"elm","b",1,"female",22,104,6,2023
107.304590900007,0.686890700002536,"image_neg",0.787871799999266,"mayor","y",1,"female",22,104,6,2023
117.3013622,0.690808900006218,"image_pos",0.692188500004704,"blueberry","b",1,"female",22,104,6,2023
124.702390000006,0.689808299997821,"image_neg",0.557658499994432,"lawyer","y",1,"female",22,104,6,2023
134.702429100013,0.689952399989124,"image_neg",0.508336399987456,"gunshot","y",1,"female",22,104,6,2023
147.303005400012,0.690117099991767,"image_neg",0.474871300000814,"funeral","y",1,"female",22,104,6,2023
157.304684700008,0.688771400004043,"image_pos",0.506526099998155,"chipmunk","b",1,"female",22,104,6,2023
167.304359000002,0.689949999999953,"image_pos",0.526311000008718,"chair","b",1,"female",22,104,6,2023
174.704499400003,0.68990379999741,"image_neg",0.709584500000346,"law","y",1,"female",22,104,6,2023
187.30728020001,0.687499599996954,"image_pos",0.505318900002749,"read","b",1,"female",22,104,6,2023
194.705628100011,0.689872599992697,"image_pos",0.875318099992,"honeymoon","b",1,"female",22,104,6,2023
204.706838500002,0.68953170000168,"image_pos",0.523833400002331,"accordion","b",1,"female",22,104,6,2023
214.706358100011,0.690390499992589,"image_neg",0.858185499993851,"politician","y",1,"female",22,104,6,2023
227.310456900013,0.689128799989732,"image_pos",0.691094899986638,"bugle","b",1,"female",22,104,6,2023
234.707296100009,0.690282499999768,"image_pos",0.676150500003132,"dolphin","b",1,"female",22,104,6,2023
247.308474100006,0.689636399998534,"image_neg",0.858969399996568,"table","y",1,"female",22,104,6,2023
257.308411900012,0.690176199990674,"image_neg",0.610630700000911,"prison","y",1,"female",22,104,6,2023
264.708524000001,0.690063600006397,"image_pos",0.725434100007988,"audience","b",1,"female",22,104,6,2023
277.312374600006,0.68711650000472,"image_neg",0.6551485999953,"rake","y",1,"female",22,104,6,2023
284.7095826,0.690500400000019,"image_pos",0.875452500011306,"handshake","b",1,"female",22,104,6,2023
297.313800600008,0.686501499993028,"image_neg",0.724141700004111,"medicine","y",1,"female",22,104,6,2023
307.311870900012,0.688650700001745,"image_neg",0.874875199995586,"soccer","y",1,"female",22,104,6,2023
314.713763000007,0.687555900003645,"image_neg",0.84069989999989,"finger","y",1,"female",22,104,6,2023
327.3116266,0.690706000008504,"image_pos",0.674907700013136,"hygiene","b",1,"female",22,104,6,2023
337.313622800008,0.688664100001915,"image_neg",0.89120909999474,"sin","y",1,"female",22,104,6,2023
347.313950600001,0.689203100002544,"image_neg",0.59192650001205,"judge","y",1,"female",22,104,6,2023
357.313389500006,0.692502699996112,"image_neg",0.695025599998189,"satire","y",1,"female",22,104,6,2023
364.713273800007,0.69293760000437,"image_pos",0.876659500005189,"sun","b",1,"female",22,104,6,2023
374.715318600007,0.688666200003354,"image_neg",0.724457899996196,"escalator","y",1,"female",22,104,6,2023
387.314562600004,0.690255100009381,"image_pos",0.595088000001851,"era","b",1,"female",22,104,6,2023
394.714491200008,0.690506999992067,"image_neg",0.792053800003487,"role","y",1,"female",22,104,6,2023
407.316316600001,0.68934420000005,"image_pos",0.74072650000744,"river","b",1,"female",22,104,6,2023
417.317234700007,0.688803500001029,"image_pos",0.590216700002202,"girl","b",1,"female",22,104,6,2023
427.316373300011,0.69072949999827,"image_pos",0.742904899991117,"prairie","b",1,"female",22,104,6,2023
434.717845900013,0.689640699987706,"image_pos",0.692334199993638,"dinner","b",1,"female",22,104,6,2023
444.717425200011,0.690409599992563,"image_neg",0.70868129999144,"rumor","y",1,"female",22,104,6,2023
457.320003700006,0.687929899999233,"image_neg",0.473549200003617,"fee","y",1,"female",22,104,6,2023
464.718859500004,0.689651499997183,"image_pos",0.62458630000765,"scooter","b",1,"female",22,104,6,2023
474.71996100001,0.689393900000141,"image_neg",0.641429499999504,"lost","y",1,"female",22,104,6,2023
484.720903500012,0.688342699999282,"image_pos",0.406300999995437,"pumpkin","b",1,"female",22,104,6,2023
494.72050380001,0.70640860000276,"image_pos",0.490964900003746,"camera","b",1,"female",22,104,6,2023
504.738576100004,0.688542999996571,"image_neg",0.84123279999767,"woe","y",1,"female",22,104,6,2023
514.738338900002,0.689125300006708,"image_pos",0.490511700001662,"cheese","b",1,"female",22,104,6,2023
524.739531600004,0.688489200008917,"image_pos",0.824079600002733,"party","b",1,"female",22,104,6,2023
534.739790100008,0.688747399995918,"image_pos",0.508059600004344,"forest","b",1,"female",22,104,6,2023
547.339951000002,0.689727700009826,"image_neg",0.641099700005725,"bee","y",1,"female",22,104,6,2023
554.740286200002,0.689430300000822,"image_pos",0.425574500011862,"home","b",1,"female",22,104,6,2023
567.342257200013,0.687607100000605,"image_pos",0.59009209999931,"comb","b",1,"female",22,104,6,2023
574.740547400012,0.690462500002468,"image_neg",0.491083200002322,"guilt","y",1,"female",22,104,6,2023
584.741315000007,0.690126999994391,"image_neg",0.742232100004912,"crow","y",1,"female",22,104,6,2023
594.743283100004,0.688527400008752,"image_neg",0.77267479999864,"quantity","y",1,"female",22,104,6,2023
0.995270500003244,0.69026470000972,"word_neg",0.75532640000165,"folly","y",1,"female",22,104,6,2023
10.9912907000107,0.695772099992608,"word_pos",0.627259800006868,"parade","b",1,"female",22,104,6,2023
20.9909729000065,0.696173899996214,"word_neu",0.740801499996451,"church","b",1,"female",22,104,6,2023
30.9915929000126,0.69625239999732,"word_neg",0.758274599997094,"old","y",1,"female",22,104,6,2023
40.9922243000037,0.695496700005606,"word_neg",0.557523099996615,"protest","y",1,"female",22,104,6,2023
50.9936680000101,0.694854399989701,"word_pos",0.54224830000021,"chocolate","b",1,"female",22,104,6,2023
60.9940174000076,0.69503160000022,"word_neu",0.541241800005082,"advice","b",1,"female",22,104,6,2023
70.995711800002,0.694334400002845,"word_neu",0.688844799995422,"analogy","b",1,"female",22,104,6,2023
80.9928505999997,0.697433400011505,"word_neu",0.607806900006835,"big","y",1,"female",22,104,6,2023
90.9930377000128,0.697382599988472,"word_pos",0.724990499991691,"elm","b",1,"female",22,104,6,2023
100.993152100011,0.698201999999583,"word_neg",0.787871799999266,"mayor","y",1,"female",22,104,6,2023
110.994148800004,0.696917699999176,"word_pos",0.692188500004704,"blueberry","b",1,"female",22,104,6,2023
120.9983106,0.69367210000928,"word_neg",0.557658499994432,"lawyer","y",1,"female",22,104,6,2023
130.996657200012,0.695583299995633,"word_neg",0.508336399987456,"gunshot","y",1,"female",22,104,6,2023
140.99891200001,0.693737099994905,"word_neg",0.474871300000814,"funeral","y",1,"female",22,104,6,2023
150.997351000013,0.696032699997886,"word_pos",0.506526099998155,"chipmunk","b",1,"female",22,104,6,2023
160.995892700012,0.698059000002104,"word_neu",0.526311000008718,"chair","b",1,"female",22,104,6,2023
170.996015300014,0.698198199999723,"word_neg",0.709584500000346,"law","y",1,"female",22,104,6,2023
180.996477800014,0.698420499989851,"word_pos",0.505318900002749,"read","b",1,"female",22,104,6,2023
190.998996800001,0.696135600010138,"word_pos",0.875318099992,"honeymoon","b",1,"female",22,104,6,2023
200.997909400001,0.697891000003494,"word_neu",0.523833400002331,"accordion","b",1,"female",22,104,6,2023
211.001153400008,0.694932400001591,"word_neg",0.858185499993851,"politician","y",1,"female",22,104,6,2023
220.999479900012,0.697409199987277,"word_neu",0.691094899986638,"bugle","b",1,"female",22,104,6,2023
231.001760300001,0.695616100012558,"word_pos",0.676150500003132,"dolphin","b",1,"female",22,104,6,2023
240.999832400004,0.700381500006159,"word_neu",0.858969399996568,"table","y",1,"female",22,104,6,2023
250.999660400004,0.6989725000021,"word_neg",0.610630700000911,"prison","y",1,"female",22,104,6,2023
261.000596800004,0.698322199998074,"word_neu",0.725434100007988,"audience","b",1,"female",22,104,6,2023
271.002441500008,0.69669939999585,"word_neg",0.6551485999953,"rake","y",1,"female",22,104,6,2023
281.003465800008,0.696614500004216,"word_pos",0.875452500011306,"handshake","b",1,"female",22,104,6,2023
291.003080300012,0.697076799988281,"word_neu",0.724141700004111,"medicine","y",1,"female",22,104,6,2023
301.002887900002,0.697784200005117,"word_neu",0.874875199995586,"soccer","y",1,"female",22,104,6,2023
311.002941600003,0.698368900004425,"word_neu",0.84069989999989,"finger","y",1,"female",22,104,6,2023
321.00377570001,0.700367999990704,"word_pos",0.674907700013136,"hygiene","b",1,"female",22,104,6,2023
331.00518420001,0.697117699994124,"word_neg",0.89120909999474,"sin","y",1,"female",22,104,6,2023
341.006198300005,0.696275099995546,"word_neg",0.59192650001205,"judge","y",1,"female",22,104,6,2023
351.005022600002,0.697998600007907,"word_neu",0.695025599998189,"satire","y",1,"female",22,104,6,2023
361.006514200009,0.696760699997014,"word_pos",0.876659500005189,"sun","b",1,"female",22,104,6,2023
371.006064400004,0.698049600003287,"word_neu",0.724457899996196,"escalator","y",1,"female",22,104,6,2023
381.007936000009,0.696427300004871,"word_neu",0.595088000001851,"era","b",1,"female",22,104,6,2023
391.00723090001,0.697383599996101,"word_neu",0.792053800003487,"role","y",1,"female",22,104,6,2023
401.007982300012,0.697812300000805,"word_pos",0.74072650000744,"river","b",1,"female",22,104,6,2023
411.008014100007,0.698279999996885,"word_pos",0.590216700002202,"girl","b",1,"female",22,104,6,2023
421.010328600009,0.695765800002846,"word_neu",0.742904899991117,"prairie","b",1,"female",22,104,6,2023
431.009723900002,0.697256800005562,"word_pos",0.692334199993638,"dinner","b",1,"female",22,104,6,2023
441.009719500013,0.698063699994236,"word_neg",0.70868129999144,"rumor","y",1,"female",22,104,6,2023
451.010473900009,0.697274299993296,"word_neg",0.473549200003617,"fee","y",1,"female",22,104,6,2023
461.011327400003,0.696991500008153,"word_neu",0.62458630000765,"scooter","b",1,"female",22,104,6,2023
471.010478800003,0.698315700006788,"word_neg",0.641429499999504,"lost","y",1,"female",22,104,6,2023
481.011753700004,0.697492599996622,"word_pos",0.406300999995437,"pumpkin","b",1,"female",22,104,6,2023
491.013156700006,0.69662079999398,"word_pos",0.490964900003746,"camera","b",1,"female",22,104,6,2023
501.028482000009,0.698854000002086,"word_neg",0.84123279999767,"woe","y",1,"female",22,104,6,2023
511.030451400002,0.696822500001929,"word_pos",0.490511700001662,"cheese","b",1,"female",22,104,6,2023
521.029839400013,0.697936899989145,"word_pos",0.824079600002733,"party","b",1,"female",22,104,6,2023
531.030582900014,0.697668499997235,"word_pos",0.508059600004344,"forest","b",1,"female",22,104,6,2023
541.033184500004,0.695442600001115,"word_neg",0.641099700005725,"bee","y",1,"female",22,104,6,2023
551.031040500005,0.698118800006341,"word_pos",0.425574500011862,"home","b",1,"female",22,104,6,2023
561.031273200002,0.698445100002573,"word_neu",0.59009209999931,"comb","b",1,"female",22,104,6,2023
571.032145600009,0.69851380000182,"word_neg",0.491083200002322,"guilt","y",1,"female",22,104,6,2023
581.033270300002,0.697432000000845,"word_neg",0.742232100004912,"crow","y",1,"female",22,104,6,2023
591.035012400011,0.696354300001985,"word_neu",0.77267479999864,"quantity","y",1,"female",22,104,6,2023
7.35232480004197,0.68556059995899,"image_neg",0.570638699980918,"deceit","y",0,"female",24,126,1,2024
14.7745977999875,0.680419900047127,"image_pos",0.615968700032681,"new","b",1,"female",24,126,1,2024
24.78388860001,0.671289600024465,"image_neg",0.588996700011194,"bridge","y",0,"female",24,126,1,2024
37.371211300022,0.685157999978401,"image_neg",0.535859399999026,"hamster","y",0,"female",24,126,1,2024
44.7838888000115,0.672369399981108,"image_pos",0.424234399979468,"fun","b",1,"female",24,126,1,2024
54.7716352000134,0.684994100010954,"image_pos",0.469467999995686,"famous","b",1,"female",24,126,1,2024
64.780948300031,0.676162899995688,"image_neg",0.677235300012399,"mouse","y",0,"female",24,126,1,2024
74.7855790000176,0.672218299994711,"image_pos",0.473475800012238,"spatula","b",1,"female",24,126,1,2024
84.7819826999912,0.676577600010205,"image_neg",0.610786400036886,"commander","y",0,"female",24,126,1,2024
94.7848640999873,0.67383430001793,"image_pos",0.474613600003067,"tourist","b",1,"female",24,126,1,2024
104.773116700002,0.685903500008834,"image_pos",0.57094440003857,"zoo","b",1,"female",24,126,1,2024
117.373677299998,0.686454600014258,"image_pos",0.587539500033017,"whale","b",1,"female",24,126,1,2024
127.385673200013,0.67465290002292,"image_neg",0.492628199979663,"plot","y",0,"female",24,126,1,2024
134.775205800019,0.68527489999542,"image_neg",0.73653049999848,"rocket","y",0,"female",24,126,1,2024
147.387202100013,0.674246400012635,"image_neg",0.625067199987825,"diplomat","y",0,"female",24,126,1,2024
157.375819100009,0.686168999993242,"image_neg",0.403624200029299,"envy","y",0,"female",24,126,1,2024
164.784860600019,0.677058100001886,"image_neg",0.411899400001857,"hospital","y",0,"female",24,126,1,2024
177.389189400012,0.673478999990039,"image_pos",0.476307599979918,"plum","b",1,"female",24,126,1,2024
184.776956600021,0.68601269996725,"image_pos",0.570581400010269,"lemonade","y",0,"female",24,126,1,2024
197.404411000025,0.676056099997396,"image_neg",0.610714800015558,"keyboard","y",0,"female",24,126,1,2024
207.395077100024,0.685589800006738,"image_neg",0.653573699994013,"man","y",0,"female",24,126,1,2024
217.407509400044,0.673712499963557,"image_pos",0.558734799968079,"pineapple","b",1,"female",24,126,1,2024
224.794692400028,0.686871499987291,"image_pos",0.73820630001137,"beach","b",1,"female",24,126,1,2024
234.796858000045,0.685416399966897,"image_pos",0.486405399977229,"woman","b",1,"female",24,126,1,2024
247.408278300019,0.6749360000249,"image_neg",0.509709800011478,"fence","y",0,"female",24,126,1,2024
257.411633200012,0.671441300015431,"image_pos",0.706623299978673,"pie","b",1,"female",24,126,1,2024
267.409196700028,0.674424299970269,"image_neg",0.625826800009236,"jury","y",0,"female",24,126,1,2024
277.397288300039,0.686878799984697,"image_neg",0.504719099961221,"victim","y",0,"female",24,126,1,2024
284.798454000033,0.686302899965085,"image_neg",0.671138599980623,"hurricane","y",0,"female",24,126,1,2024
297.410247199994,0.674922200036235,"image_neg",0.610807000019122,"corkscrew","y",0,"female",24,126,1,2024
304.799518000043,0.685915899986924,"image_neg",0.637437299999874,"noun","y",0,"female",24,126,1,2024
314.812746900017,0.673138500016648,"image_pos",0.574710300017614,"happy","b",1,"female",24,126,1,2024
327.415517700021,0.671095099998581,"image_neg",0.672454299987294,"policeman","y",0,"female",24,126,1,2024
337.400505600031,0.686465999984648,"image_neg",0.637778699980117,"sandpaper","y",0,"female",24,126,1,2024
344.81404550001,0.673457900003996,"image_pos",0.774894200032577,"boat","b",1,"female",24,126,1,2024
354.81322750001,0.674718900001608,"image_neg",0.493085000023711,"bribe","y",0,"female",24,126,1,2024
364.813679000014,0.674735900014639,"image_pos",0.576000400003977,"limousine","b",1,"female",24,126,1,2024
374.815586500045,0.675504899991154,"image_neg",0.525531599996611,"aggressive","y",0,"female",24,126,1,2024
387.417648700008,0.67179120000219,"image_pos",0.708714600012172,"treaty","b",1,"female",24,126,1,2024
394.814808800002,0.67557630001113,"image_neg",0.692990400013514,"lonely","y",0,"female",24,126,1,2024
404.815465799998,0.67482650000602,"image_pos",0.542631799995434,"kiss","b",1,"female",24,126,1,2024
417.417344900023,0.67364059999818,"image_pos",0.641529100015759,"wealthy","b",1,"female",24,126,1,2024
424.804702699999,0.687172600009944,"image_pos",0.68852710002102,"tomato","b",1,"female",24,126,1,2024
437.407234899991,0.684712700021976,"image_pos",0.552285800047684,"garden","b",1,"female",24,126,1,2024
444.804682600021,0.687692000006791,"image_pos",0.605119100015145,"oak","b",1,"female",24,126,1,2024
454.809430400026,0.68330410000641,"image_pos",0.534213399980217,"field","b",1,"female",24,126,1,2024
467.419617300038,0.673766099964269,"image_neg",0.593031399999745,"alligator","y",0,"female",24,126,1,2024
477.419041800022,0.674747599987313,"image_pos",0.442676400009077,"love","b",1,"female",24,126,1,2024
484.808375900029,0.685850700014271,"image_pos",0.52029479999328,"moral","b",1,"female",24,126,1,2024
497.420080900018,0.674882899969873,"image_neg",0.728529000014532,"avalanche","y",0,"female",24,126,1,2024
504.808640700008,0.686520399991423,"image_neg",0.604457799985539,"meeting","y",0,"female",24,126,1,2024
514.825107800018,0.670616800023708,"image_pos",0.621636299998499,"embassy","b",1,"female",24,126,1,2024
524.810725899995,0.685574100003578,"image_pos",0.604636100004427,"lake","b",1,"female",24,126,1,2024
534.811011500016,0.685602399986237,"image_pos",0.603822399978526,"truck","b",1,"female",24,126,1,2024
544.811553600011,0.685694599989802,"image_pos",0.486756600032095,"sled","b",1,"female",24,126,1,2024
557.423358300002,0.674283800006378,"image_neg",0.70940230000997,"tornado","y",0,"female",24,126,1,2024
564.811264600023,0.686944200017024,"image_neg",0.722026499977801,"fiddle","y",0,"female",24,126,1,2024
577.415087800007,0.683982599992305,"image_neg",0.635018400033005,"gasp","y",0,"female",24,126,1,2024
587.425250300032,0.673859599977732,"image_pos",0.608743199962191,"school","b",1,"female",24,126,1,2024
597.413070600014,0.686802099982742,"image_pos",0.637883300019894,"beer","b",1,"female",24,126,1,2024
1.01469079998787,0.689360400021542,"word_neg",0.570638699980918,"deceit","y",0,"female",24,126,1,2024
11.0414113000152,0.696895800007042,"word_pos",0.615968700032681,"new","b",1,"female",24,126,1,2024
21.0582224000245,0.696760299964808,"word_neu",0.588996700011194,"bridge","y",0,"female",24,126,1,2024
31.0603776000207,0.695469999976922,"word_neu",0.535859399999026,"hamster","y",0,"female",24,126,1,2024
41.0593237000285,0.6973241000087,"word_pos",0.424234399979468,"fun","b",1,"female",24,126,1,2024
51.0591334000346,0.697738899965771,"word_neu",0.469467999995686,"famous","b",1,"female",24,126,1,2024
61.0590836000047,0.698763600026723,"word_neg",0.677235300012399,"mouse","y",0,"female",24,126,1,2024
71.0604155000183,0.697002800006885,"word_neu",0.473475800012238,"spatula","b",1,"female",24,126,1,2024
81.0602624000167,0.697641199978534,"word_neg",0.610786400036886,"commander","y",0,"female",24,126,1,2024
91.0610065000365,0.697913099953439,"word_neu",0.474613600003067,"tourist","b",1,"female",24,126,1,2024
101.062006200023,0.697135599970338,"word_pos",0.57094440003857,"zoo","b",1,"female",24,126,1,2024
111.061596100044,0.697777399967904,"word_neu",0.587539500033017,"whale","b",1,"female",24,126,1,2024
121.061792500026,0.698069299978656,"word_neg",0.492628199979663,"plot","y",0,"female",24,126,1,2024
131.064605400024,0.695700799988117,"word_neu",0.73653049999848,"rocket","y",0,"female",24,126,1,2024
141.062803200039,0.698218100005761,"word_neg",0.625067199987825,"diplomat","y",0,"female",24,126,1,2024
151.064868699992,0.696863600052893,"word_neg",0.403624200029299,"envy","y",0,"female",24,126,1,2024
161.064509899996,0.697249300021213,"word_neg",0.411899400001857,"hospital","y",0,"female",24,126,1,2024
171.064039600024,0.698470900009852,"word_pos",0.476307599979918,"plum","b",1,"female",24,126,1,2024
181.064690400031,0.698226400010725,"word_pos",0.570581400010269,"lemonade","y",0,"female",24,126,1,2024
191.06632740004,0.697321299987408,"word_neu",0.610714800015558,"keyboard","y",0,"female",24,126,1,2024
201.081961299991,0.698798400000669,"word_neu",0.653573699994013,"man","y",0,"female",24,126,1,2024
211.083141700015,0.697721200005645,"word_pos",0.558734799968079,"pineapple","b",1,"female",24,126,1,2024
221.083677600021,0.697789099998772,"word_pos",0.73820630001137,"beach","b",1,"female",24,126,1,2024
231.084124699992,0.697716800030321,"word_pos",0.486405399977229,"woman","b",1,"female",24,126,1,2024
241.084971400036,0.697338900004979,"word_neu",0.509709800011478,"fence","y",0,"female",24,126,1,2024
251.084569600003,0.698437499988387,"word_pos",0.706623299978673,"pie","b",1,"female",24,126,1,2024
261.087297699996,0.696017400012352,"word_neg",0.625826800009236,"jury","y",0,"female",24,126,1,2024
271.085923200008,0.698110099998303,"word_neg",0.504719099961221,"victim","y",0,"female",24,126,1,2024
281.089466100035,0.69488649995759,"word_neg",0.671138599980623,"hurricane","y",0,"female",24,126,1,2024
291.087152599997,0.697606600006168,"word_neu",0.610807000019122,"corkscrew","y",0,"female",24,126,1,2024
301.087737100024,0.697599200007971,"word_neu",0.637437299999874,"noun","y",0,"female",24,126,1,2024
311.088977400039,0.697159599978477,"word_pos",0.574710300017614,"happy","b",1,"female",24,126,1,2024
321.088681900001,0.697474599990528,"word_neg",0.672454299987294,"policeman","y",0,"female",24,126,1,2024
331.089036500023,0.697695999988412,"word_neg",0.637778699980117,"sandpaper","y",0,"female",24,126,1,2024
341.09023760003,0.696997099963482,"word_pos",0.774894200032577,"boat","b",1,"female",24,126,1,2024
351.091146700026,0.69656179996673,"word_neg",0.493085000023711,"bribe","y",0,"female",24,126,1,2024
361.090729399992,0.697503000032157,"word_pos",0.576000400003977,"limousine","b",1,"female",24,126,1,2024
371.091081499995,0.69754130003281,"word_neg",0.525531599996611,"aggressive","y",0,"female",24,126,1,2024
381.091882500041,0.697334099968486,"word_neu",0.708714600012172,"treaty","b",1,"female",24,126,1,2024
391.091845499992,0.69806340005016,"word_neg",0.692990400013514,"lonely","y",0,"female",24,126,1,2024
401.091597800027,0.699115099967457,"word_pos",0.542631799995434,"kiss","b",1,"female",24,126,1,2024
411.094282000035,0.696279099967796,"word_pos",0.641529100015759,"wealthy","b",1,"female",24,126,1,2024
421.094033600006,0.697031299991067,"word_neu",0.68852710002102,"tomato","b",1,"female",24,126,1,2024
431.093830600032,0.697734699991997,"word_pos",0.552285800047684,"garden","b",1,"female",24,126,1,2024
441.094172200013,0.698142400011363,"word_pos",0.605119100015145,"oak","b",1,"female",24,126,1,2024
451.095068900031,0.697434799978566,"word_neu",0.534213399980217,"field","b",1,"female",24,126,1,2024
461.095560899994,0.697472100029813,"word_neg",0.593031399999745,"alligator","y",0,"female",24,126,1,2024
471.095819300041,0.69775529997429,"word_pos",0.442676400009077,"love","b",1,"female",24,126,1,2024
481.096231000032,0.697770899976604,"word_pos",0.52029479999328,"moral","b",1,"female",24,126,1,2024
491.098680299998,0.69579750002589,"word_neg",0.728529000014532,"avalanche","y",0,"female",24,126,1,2024
501.097386200039,0.69786600000225,"word_neg",0.604457799985539,"meeting","y",0,"female",24,126,1,2024
511.097820500028,0.697608899965417,"word_neu",0.621636299998499,"embassy","b",1,"female",24,126,1,2024
521.098520700005,0.697685900027864,"word_pos",0.604636100004427,"lake","b",1,"female",24,126,1,2024
531.098401300027,0.69802939996589,"word_neu",0.603822399978526,"truck","b",1,"female",24,126,1,2024
541.0987494,0.698185999994166,"word_pos",0.486756600032095,"sled","b",1,"female",24,126,1,2024
551.099630900018,0.697762200026773,"word_neg",0.70940230000997,"tornado","y",0,"female",24,126,1,2024
561.099645600014,0.698217400000431,"word_neu",0.722026499977801,"fiddle","y",0,"female",24,126,1,2024
571.102759800036,0.695811599958688,"word_neg",0.635018400033005,"gasp","y",0,"female",24,126,1,2024
581.101292800042,0.697622699954081,"word_neu",0.608743199962191,"school","b",1,"female",24,126,1,2024
591.101179299993,0.698392699996475,"word_neu",0.637883300019894,"beer","b",1,"female",24,126,1,2024
4.70800609997241,0.672605200030376,"image_pos",0.490815000026487,"theory","b",1,"female",24,126,2,2024
17.3090391999576,0.672088399995118,"image_pos",0.423472900001798,"vacation","b",1,"female",24,126,2,2024
24.6955736999516,0.686198200040959,"image_pos",0.437284300045576,"embrace","b",1,"female",24,126,2,2024
37.2959131999523,0.686457200034063,"image_pos",0.604434100037906,"monkey","b",1,"female",24,126,2,2024
47.3150709999609,0.68451970000752,"image_neg",0.568875400000252,"eggplant","y",0,"female",24,126,2,2024
57.3246650999645,0.675229299988132,"image_pos",0.67664339998737,"fireworks","b",1,"female",24,126,2,2024
64.7242335999617,0.676212200021837,"image_neg",0.643774399999529,"verb","y",0,"female",24,126,2,2024
77.3279995999765,0.672646099992562,"image_neg",0.540498099988326,"angry","y",0,"female",24,126,2,2024
87.3145430999575,0.687026900006458,"image_neg",0.488299200020265,"perjury","y",0,"female",24,126,2,2024
94.7269502999843,0.675008999998681,"image_pos",0.709253099979833,"artist","b",1,"female",24,126,2,2024
107.316343399987,0.686045899987249,"image_pos",0.553773299965542,"musical","b",1,"female",24,126,2,2024
117.317729500006,0.685077299945988,"image_pos",0.653101399948355,"carnival","b",1,"female",24,126,2,2024
127.329687299964,0.67413290002149,"image_neg",0.624836300034076,"winter","y",0,"female",24,126,2,2024
137.318725699966,0.684939300001133,"image_neg",0.519766899989918,"stone","y",0,"female",24,126,2,2024
144.730539499957,0.673843100026716,"image_pos",0.59159379999619,"asparagus","b",1,"female",24,126,2,2024
154.728936999978,0.675523100013379,"image_neg",0.643819099990651,"van","y",0,"female",24,126,2,2024
167.330258500006,0.675146399997175,"image_pos",0.559411199996248,"street","b",1,"female",24,126,2,2024
177.319809999957,0.686319200030994,"image_pos",0.737812100036535,"knowledge","b",1,"female",24,126,2,2024
187.332898899971,0.673297600005753,"image_neg",0.941598900011741,"highway","y",0,"female",24,126,2,2024
197.322263699956,0.684487899998203,"image_neg",0.685906500031706,"pan","y",0,"female",24,126,2,2024
207.321705899958,0.685829500027467,"image_neg",0.636568500020076,"plea","y",0,"female",24,126,2,2024
217.334463899955,0.673379300045752,"image_pos",0.791321800032165,"sailboat","y",0,"female",24,126,2,2024
224.732276699971,0.675720900006155,"image_neg",0.693675599992275,"scissors","y",0,"female",24,126,2,2024
234.732753199991,0.675970899988869,"image_pos",0.760359200008679,"joke","b",1,"female",24,126,2,2024
244.733674799965,0.675220700039063,"image_neg",0.776326299994253,"lab","y",0,"female",24,126,2,2024
254.722117399971,0.687486200011335,"image_neg",0.638858499994967,"toaster","y",0,"female",24,126,2,2024
264.724386499962,0.686010300007183,"image_neg",0.687696500041056,"speech","y",0,"female",24,126,2,2024
274.724484999955,0.686438800010365,"image_neg",0.570570300042164,"sick","y",0,"female",24,126,2,2024
287.336882399977,0.674597800010815,"image_neg",0.642201400012709,"excuse","y",0,"female",24,126,2,2024
297.334794799972,0.676616600016132,"image_pos",0.695285000023432,"chicken","b",1,"female",24,126,2,2024
307.337967599975,0.674245700007305,"image_neg",0.908935000014026,"terrorist","y",0,"female",24,126,2,2024
317.325498699967,0.686946500034537,"image_neg",0.688328100019135,"camel","y",0,"female",24,126,2,2024
327.328285800002,0.684965399967041,"image_neg",0.719457799976226,"clang","y",0,"female",24,126,2,2024
334.726810499968,0.686469700012879,"image_neg",0.637662200024351,"hoe","y",0,"female",24,126,2,2024
347.336237399955,0.677881400042736,"image_pos",0.780073800007813,"barbecue","b",1,"female",24,126,2,2024
354.738443599956,0.675721400009934,"image_neg",0.544080800027587,"nose","y",0,"female",24,126,2,2024
367.340364300006,0.674887899949681,"image_pos",0.676317799952812,"day","b",1,"female",24,126,2,2024
374.728100399952,0.687082000018506,"image_pos",0.722428200009745,"summer","b",1,"female",24,126,2,2024
387.341417699994,0.674427999998443,"image_neg",0.526559399964754,"axe","y",0,"female",24,126,2,2024
397.330219299998,0.686322099994925,"image_neg",0.689116499968804,"cough","y",0,"female",24,126,2,2024
404.74239129998,0.674656299990545,"image_pos",0.459213799971621,"business","b",1,"female",24,126,2,2024
414.740994199994,0.676302300009354,"image_neg",0.577161799999885,"problem","y",0,"female",24,126,2,2024
427.343684299965,0.674092300003394,"image_pos",0.692928100004792,"piano","b",1,"female",24,126,2,2024
437.33273959998,0.685481699998491,"image_pos",0.670248900016304,"spaghetti","b",1,"female",24,126,2,2024
444.739909199998,0.678940599958935,"image_neg",0.597148999979254,"landslide","y",0,"female",24,126,2,2024
457.333889900008,0.685621099954005,"image_neg",0.570186799974181,"office","y",0,"female",24,126,2,2024
467.344976899971,0.675029000034499,"image_pos",0.50943889998598,"luck","b",1,"female",24,126,2,2024
474.74352269998,0.676458699978014,"image_neg",0.428892399999313,"tired","y",0,"female",24,126,2,2024
484.733988299966,0.686639200022967,"image_neg",0.721190500014927,"power","y",0,"female",24,126,2,2024
494.746563199966,0.674422900017873,"image_pos",0.64269950002199,"restaurant","b",1,"female",24,126,2,2024
504.745814499969,0.675655300030485,"image_neg",0.82813520001946,"jaw","y",0,"female",24,126,2,2024
514.746773099992,0.675172899966128,"image_pos",0.393217900011223,"attribute","b",1,"female",24,126,2,2024
524.735584099952,0.687407200050075,"image_pos",0.771581800014246,"optimism","b",1,"female",24,126,2,2024
534.737788699975,0.685165999981109,"image_pos",0.419776100025047,"tree","b",1,"female",24,126,2,2024
547.349913799961,0.67378120002104,"image_neg",0.525126299995463,"ricochet","y",0,"female",24,126,2,2024
557.365847699984,0.675229699991178,"image_pos",0.743147499975748,"mercy","b",1,"female",24,126,2,2024
567.366447999957,0.674735900014639,"image_neg",0.675911300000735,"heavy","y",0,"female",24,126,2,2024
577.355419199972,0.686607500014361,"image_neg",0.654094299999997,"whole","y",0,"female",24,126,2,2024
587.367665699974,0.674926400010008,"image_pos",0.626004200021271,"apartment","b",1,"female",24,126,2,2024
597.366611299978,0.676011900010053,"image_neg",0.693811099976301,"store","y",0,"female",24,126,2,2024
0.990344199992251,0.690292000013869,"word_neu",0.490815000026487,"theory","b",1,"female",24,126,2,2024
10.985730699962,0.695503099996133,"word_pos",0.423472900001798,"vacation","b",1,"female",24,126,2,2024
20.9848596999655,0.696479900041599,"word_pos",0.437284300045576,"embrace","b",1,"female",24,126,2,2024
30.9849501999561,0.697203600022476,"word_neu",0.604434100037906,"monkey","b",1,"female",24,126,2,2024
40.9864663999761,0.696050300030038,"word_neu",0.568875400000252,"eggplant","y",0,"female",24,126,2,2024
51.0035802999628,0.696378600026954,"word_pos",0.67664339998737,"fireworks","b",1,"female",24,126,2,2024
61.0025155000039,0.697405299986713,"word_neu",0.643774399999529,"verb","y",0,"female",24,126,2,2024
71.0026935999631,0.697584500012454,"word_neg",0.540498099988326,"angry","y",0,"female",24,126,2,2024
81.0048586999765,0.695914999989327,"word_neg",0.488299200020265,"perjury","y",0,"female",24,126,2,2024
91.0038351999829,0.697791600017823,"word_pos",0.709253099979833,"artist","b",1,"female",24,126,2,2024
101.005106900004,0.69671379995998,"word_pos",0.553773299965542,"musical","b",1,"female",24,126,2,2024
111.005407899967,0.697155300003942,"word_pos",0.653101399948355,"carnival","b",1,"female",24,126,2,2024
121.006506699952,0.696801100042663,"word_neu",0.624836300034076,"winter","y",0,"female",24,126,2,2024
131.00602109998,0.697634499985725,"word_neg",0.519766899989918,"stone","y",0,"female",24,126,2,2024
141.006691999966,0.697053599986248,"word_neu",0.59159379999619,"asparagus","b",1,"female",24,126,2,2024
151.006852299965,0.697502300026827,"word_neg",0.643819099990651,"van","y",0,"female",24,126,2,2024
161.007256499957,0.697699000011198,"word_neu",0.559411199996248,"street","b",1,"female",24,126,2,2024
171.00790789997,0.697317500016652,"word_pos",0.737812100036535,"knowledge","b",1,"female",24,126,2,2024
181.008326099953,0.697470700019011,"word_neu",0.941598900011741,"highway","y",0,"female",24,126,2,2024
191.008268199977,0.697950600006152,"word_neu",0.685906500031706,"pan","y",0,"female",24,126,2,2024
201.009086399979,0.697784000018146,"word_neg",0.636568500020076,"plea","y",0,"female",24,126,2,2024
211.009985599958,0.697271100012614,"word_pos",0.791321800032165,"sailboat","y",0,"female",24,126,2,2024
221.010416099976,0.697319699975196,"word_neu",0.693675599992275,"scissors","y",0,"female",24,126,2,2024
231.010453399969,0.697817999986,"word_pos",0.760359200008679,"joke","b",1,"female",24,126,2,2024
241.011467100005,0.69765359995651,"word_neg",0.776326299994253,"lab","y",0,"female",24,126,2,2024
251.011288599984,0.697876899968861,"word_neu",0.638858499994967,"toaster","y",0,"female",24,126,2,2024
261.011935399962,0.697989400010556,"word_neu",0.687696500041056,"speech","y",0,"female",24,126,2,2024
271.01260029996,0.698098600027151,"word_neg",0.570570300042164,"sick","y",0,"female",24,126,2,2024
281.015950299974,0.694910700025559,"word_neg",0.642201400012709,"excuse","y",0,"female",24,126,2,2024
291.014114299964,0.696867700025905,"word_pos",0.695285000023432,"chicken","b",1,"female",24,126,2,2024
301.014426000009,0.697840599983465,"word_neg",0.908935000014026,"terrorist","y",0,"female",24,126,2,2024
311.014344799973,0.697822900023311,"word_neu",0.688328100019135,"camel","y",0,"female",24,126,2,2024
321.015305599954,0.697336900047958,"word_neg",0.719457799976226,"clang","y",0,"female",24,126,2,2024
331.014809099957,0.698310700012371,"word_neg",0.637662200024351,"hoe","y",0,"female",24,126,2,2024
341.017400999961,0.696349000034388,"word_pos",0.780073800007813,"barbecue","b",1,"female",24,126,2,2024
351.015960899997,0.698591199994553,"word_neu",0.544080800027587,"nose","y",0,"female",24,126,2,2024
361.016435700003,0.698125599999855,"word_pos",0.676317799952812,"day","b",1,"female",24,126,2,2024
371.017495499982,0.697596099984423,"word_pos",0.722428200009745,"summer","b",1,"female",24,126,2,2024
381.017603099987,0.697964499995521,"word_neg",0.526559399964754,"axe","y",0,"female",24,126,2,2024
391.018674599996,0.697347999957856,"word_neg",0.689116499968804,"cough","y",0,"female",24,126,2,2024
401.019376299984,0.697133500012569,"word_neu",0.459213799971621,"business","b",1,"female",24,126,2,2024
411.020013100002,0.696973799960631,"word_neg",0.577161799999885,"problem","y",0,"female",24,126,2,2024
421.020360099967,0.697181900031921,"word_pos",0.692928100004792,"piano","b",1,"female",24,126,2,2024
431.020854200004,0.697105099970941,"word_pos",0.670248900016304,"spaghetti","b",1,"female",24,126,2,2024
441.020870799955,0.697649600042496,"word_neg",0.597148999979254,"landslide","y",0,"female",24,126,2,2024
451.02250359999,0.69663769996265,"word_neg",0.570186799974181,"office","y",0,"female",24,126,2,2024
461.021118299977,0.698736599995755,"word_pos",0.50943889998598,"luck","b",1,"female",24,126,2,2024
471.022431299964,0.697482499992475,"word_neg",0.428892399999313,"tired","y",0,"female",24,126,2,2024
481.022911299951,0.698014400026295,"word_neu",0.721190500014927,"power","y",0,"female",24,126,2,2024
491.023589999997,0.697430600004736,"word_pos",0.64269950002199,"restaurant","b",1,"female",24,126,2,2024
501.023689599999,0.698163499997406,"word_neg",0.82813520001946,"jaw","y",0,"female",24,126,2,2024
511.023930999974,0.697854000027291,"word_neu",0.393217900011223,"attribute","b",1,"female",24,126,2,2024
521.02493049996,0.697302600019611,"word_pos",0.771581800014246,"optimism","b",1,"female",24,126,2,2024
531.025992899959,0.696796300006099,"word_pos",0.419776100025047,"tree","b",1,"female",24,126,2,2024
541.026471799996,0.696788900007959,"word_neg",0.525126299995463,"ricochet","y",0,"female",24,126,2,2024
551.043101399962,0.697309800016228,"word_pos",0.743147499975748,"mercy","b",1,"female",24,126,2,2024
561.043236700003,0.697664499981329,"word_neg",0.675911300000735,"heavy","y",0,"female",24,126,2,2024
571.04634489998,0.695683899975847,"word_neu",0.654094299999997,"whole","y",0,"female",24,126,2,2024
581.044482800004,0.697545699949842,"word_neu",0.626004200021271,"apartment","b",1,"female",24,126,2,2024
591.044914199971,0.697480300033931,"word_neu",0.693811099976301,"store","y",0,"female",24,126,2,2024
7.30547110002954,0.672725499956869,"image_neg",0.57472679996863,"grievance","y",0,"female",24,126,3,2024
17.3054337000358,0.673225199978333,"image_pos",0.574431799992453,"patent","b",1,"female",24,126,3,2024
24.7044038000167,0.67490049998742,"image_neg",0.692750599991996,"voter","y",0,"female",24,126,3,2024
37.2928323000087,0.68689519999316,"image_neg",0.637942300003488,"sum","y",0,"female",24,126,3,2024
47.2945683000144,0.68606879998697,"image_neg",0.586398600018583,"witness","y",0,"female",24,126,3,2024
57.2974306000397,0.683143699949142,"image_neg",0.734775899967644,"dusty","y",0,"female",24,126,3,2024
64.705441099999,0.675485400017351,"image_pos",0.710786600015126,"joy","b",1,"female",24,126,3,2024
74.694773300027,0.68692219996592,"image_pos",0.671359899977688,"computer","b",1,"female",24,126,3,2024
87.307122600032,0.675211899972055,"image_neg",0.476296899956651,"reporter","y",0,"female",24,126,3,2024
94.7072160000098,0.675229399988879,"image_pos",0.860160399985034,"advantage","b",1,"female",24,126,3,2024
107.306871700042,0.676325699954774,"image_neg",0.660851900000125,"volcano","y",0,"female",24,126,3,2024
114.70740210003,0.676523300004177,"image_pos",0.644314699980896,"island","b",1,"female",24,126,3,2024
124.699396500015,0.68467149999924,"image_pos",0.635980900027789,"faucet","b",1,"female",24,126,3,2024
137.309064900037,0.675654199963901,"image_neg",0.559677299985196,"cabbage","y",0,"female",24,126,3,2024
147.31073940004,0.6744593999465,"image_pos",0.709181799960788,"harp","b",1,"female",24,126,3,2024
154.708707500016,0.676971699984279,"image_neg",0.661357800010592,"glass","y",0,"female",24,126,3,2024
167.300385500013,0.685798900027294,"image_neg",0.653589499997906,"trial","y",0,"female",24,126,3,2024
174.710425600002,0.676258300023619,"image_pos",0.827320699987467,"gum","b",1,"female",24,126,3,2024
184.701223100012,0.685692400031257,"image_pos",0.736749799980316,"couple","b",1,"female",24,126,3,2024
197.312498999992,0.674968000035676,"image_neg",0.609824600047432,"tobacco","y",0,"female",24,126,3,2024
207.314188199991,0.673830700048711,"image_pos",0.775512300024275,"plane","b",1,"female",24,126,3,2024
